onset	duration	duration2fb	response_time	trial	event	choice1	state	reward
0.0	0.32242895799999677	6.366763131999996	0.32242895799999677	1	stim1	n/a	n/a	n/a
0.3224289579999997	0.027909761000002618	6.044334173999999	n/a	1	choice1	1	n/a	n/a
6.366763131999999	0.4859490390000028	3.9999953480000006	0.4859490390000028	1	stim2	n/a	0	n/a
6.852712171	0.014046308999997564	3.5140463089999976	n/a	1	choice2	n/a	0	n/a
10.366758479999998	1.5	n/a	n/a	1	outcome	n/a	n/a	0
11.866758480000001	3.0668060230000047	5.700165437999996	n/a	1	ITI_onset	n/a	n/a	n/a
14.933564503000007	0.6041895440000008	2.6333594149999917	0.6041895440000008	2	stim1	n/a	n/a	n/a
15.537754047000007	0.012505817999997816	2.029169870999991	n/a	2	choice1	0	n/a	n/a
17.566923917999993	0.4536337060000005	3.466708627	0.4536337060000005	2	stim2	n/a	0	n/a
18.020557624	0.01307492099999945	3.0130749209999994	n/a	2	choice2	n/a	0	n/a
21.033632544999996	1.5	n/a	n/a	2	outcome	n/a	n/a	1
22.533632544999996	3.566749883000004	7.433501626000004	n/a	2	ITI_onset	n/a	n/a	n/a
26.100382427999996	0.33880621300000346	3.866751743000001	0.33880621300000346	3	stim1	n/a	n/a	n/a
26.439188641	0.011254049999995915	3.527945529999997	n/a	3	choice1	0	n/a	n/a
29.967134170999998	0.6794615279999998	7.200019152000001	0.6794615279999998	3	stim2	n/a	0	n/a
30.646595699000002	0.020557624000000944	6.520557624000001	n/a	3	choice2	n/a	0	n/a
37.167153323	1.5	n/a	n/a	3	outcome	n/a	n/a	1
38.667153323	6.066883978000005	9.150309782000004	n/a	3	ITI_onset	n/a	n/a	n/a
44.73403730100001	0.5546484349999955	3.0834258039999987	0.5546484349999955	4	stim1	n/a	n/a	n/a
45.288685736	0.012032955999995465	2.5287773690000033	n/a	4	choice1	0	n/a	n/a
47.81746310500001	0.535186348999996	3.049972106999994	0.535186348999996	4	stim2	n/a	0	n/a
48.352649453999994	0.014785757999998168	2.514785757999998	n/a	4	choice2	n/a	0	n/a
50.867435212	1.5	n/a	n/a	4	outcome	n/a	n/a	1
52.367435212	3.0668095509999986	5.816834975000005	n/a	4	ITI_onset	n/a	n/a	n/a
55.434244763	0.7245742880000035	2.7500254240000066	0.7245742880000035	5	stim1	n/a	n/a	n/a
56.158819051	0.00876109900001029	2.025451136000003	n/a	5	choice1	0	n/a	n/a
58.184270187	0.5641958190000005	7.083328119999991	0.5641958190000005	5	stim2	n/a	0	n/a
58.74846600600001	0.019132300999990547	6.51913230099999	n/a	5	choice2	n/a	0	n/a
65.26759830699999	1.5	n/a	n/a	5	outcome	n/a	n/a	1
66.76759830699999	7.566938674999998	11.166990517000013	n/a	5	ITI_onset	n/a	n/a	n/a
74.334536982	0.5679350850000047	3.600051842000015	0.5679350850000047	6	stim1	n/a	n/a	n/a
74.90247206699999	0.015410359000001336	3.0321167570000105	n/a	6	choice1	0	n/a	n/a
77.934588824	0.41056830299999275	2.9167023549999866	0.41056830299999275	6	stim2	n/a	0	n/a
78.345157127	0.006134051999993972	2.506134051999994	n/a	6	choice2	n/a	0	n/a
80.85129117899999	1.5	n/a	n/a	6	outcome	n/a	n/a	0
82.35129117899999	6.066768490000002	10.216891244	n/a	6	ITI_onset	n/a	n/a	n/a
88.418059669	0.6250679690000106	4.150122753999996	0.6250679690000106	7	stim1	n/a	n/a	n/a
89.04312763800002	0.008303314999982832	3.525054784999986	n/a	7	choice1	1	n/a	n/a
92.568182423	0.5303743220000033	5.049990392000007	0.5303743220000033	7	stim2	n/a	1	n/a
93.098556745	0.019616070000003673	4.519616070000004	n/a	7	choice2	n/a	1	n/a
97.61817281500001	1.5	n/a	n/a	7	outcome	n/a	n/a	0
99.11817281500001	4.066866012999991	7.7168930089999925	n/a	7	ITI_onset	n/a	n/a	n/a
103.18503882799999	0.6184385999999941	3.6500269960000007	0.6184385999999941	8	stim1	n/a	n/a	n/a
103.80347742799998	0.014909587000016473	3.0315883960000063	n/a	8	choice1	1	n/a	n/a
106.835065824	0.37334887299999536	2.8833331890000116	0.37334887299999536	8	stim2	n/a	1	n/a
107.208414697	0.009984316000016407	2.5099843160000166	n/a	8	choice2	n/a	1	n/a
109.71839901300001	1.5	n/a	n/a	8	outcome	n/a	n/a	0
111.21839901300001	7.566858474000008	11.900284198000008	n/a	8	ITI_onset	n/a	n/a	n/a
118.78525748700002	0.30824277899999286	4.3334257240000005	0.30824277899999286	9	stim1	n/a	n/a	n/a
119.093500266	0.008429709999996702	4.025182945000008	n/a	9	choice1	0	n/a	n/a
123.11868321100002	0.4224267439999967	5.933301926999993	0.4224267439999967	9	stim2	n/a	0	n/a
123.54110995500002	0.010875182999996468	5.510875182999997	n/a	9	choice2	n/a	0	n/a
129.05198513800002	1.5	n/a	n/a	9	outcome	n/a	n/a	1
130.55198513800002	3.066841631999996	7.7669185280000095	n/a	9	ITI_onset	n/a	n/a	n/a
133.61882677	0.6776910219999845	4.700076896000013	0.6776910219999845	10	stim1	n/a	n/a	n/a
134.296517792	0.00563135599999805	4.022385874000029	n/a	10	choice1	0	n/a	n/a
138.318903666	0.6807020679999841	3.2000191519999936	0.6807020679999841	10	stim2	n/a	1	n/a
138.999605734	0.019317084000009345	2.519317084000009	n/a	10	choice2	n/a	1	n/a
141.51892281800002	1.5	n/a	n/a	10	outcome	n/a	n/a	1
143.01892281800002	2.566827676999994	8.166862194999995	n/a	10	ITI_onset	n/a	n/a	n/a
145.585750495	0.5706965469999996	5.600034518	0.5706965469999996	11	stim1	n/a	n/a	n/a
146.156447042	0.012614249999984168	5.029337971000001	n/a	11	choice1	0	n/a	n/a
151.18578501300001	0.41192465400000217	3.916673483999999	0.41192465400000217	11	stim2	n/a	0	n/a
151.597709667	0.004748829999996815	3.504748829999997	n/a	11	choice2	n/a	0	n/a
155.10245849700001	1.5	n/a	n/a	11	outcome	n/a	n/a	1
156.60245849700001	4.066761111	6.61685447999998	n/a	11	ITI_onset	n/a	n/a	n/a
160.66921960800002	0.5229605900000024	2.5500933689999803	0.5229605900000024	12	stim1	n/a	n/a	n/a
161.19218019800002	0.010437609000015072	2.027132778999978	n/a	12	choice1	0	n/a	n/a
163.219312977	0.5018142950000183	7.516632773999998	0.5018142950000183	12	stim2	n/a	0	n/a
163.72112727200002	0.01481847899997956	7.014818478999979	n/a	12	choice2	n/a	0	n/a
170.73594575099997	1.5	n/a	n/a	12	outcome	n/a	n/a	1
172.23594575099997	7.066972359000036	14.517096814000018	n/a	12	ITI_onset	n/a	n/a	n/a
179.30291811000004	0.41618490199997904	7.450124454999983	0.41618490199997904	13	stim1	n/a	n/a	n/a
179.719103012	0.017148143000027632	7.033939553000004	n/a	13	choice1	0	n/a	n/a
186.75304256500002	0.49744529400000465	2.516661645999993	0.49744529400000465	13	stim2	n/a	0	n/a
187.250487859	0.019216351999988546	2.0192163519999884	n/a	13	choice2	n/a	0	n/a
189.269704211	1.5	n/a	n/a	13	outcome	n/a	n/a	1
190.769704211	7.566864729999972	10.266885486000014	n/a	13	ITI_onset	n/a	n/a	n/a
198.33656894099997	0.6624763530000346	2.7000207560000415	0.6624763530000346	14	stim1	n/a	n/a	n/a
198.999045294	0.020849874000035924	2.037544403000007	n/a	14	choice1	0	n/a	n/a
201.036589697	0.4335803829999932	4.949993568000005	0.4335803829999932	14	stim2	n/a	0	n/a
201.47017008	0.016413185000012164	4.516413185000012	n/a	14	choice2	n/a	0	n/a
205.986583265	1.5	n/a	n/a	14	outcome	n/a	n/a	0
207.486583265	4.066877882000001	6.466910090999969	n/a	14	ITI_onset	n/a	n/a	n/a
211.553461147	0.3681733769999992	2.400032208999968	0.3681733769999992	15	stim1	n/a	n/a	n/a
211.921634524	0.015126448999973945	2.031858831999969	n/a	15	choice1	1	n/a	n/a
213.953493356	0.5165689340000099	6.033326980999991	0.5165689340000099	15	stim2	n/a	1	n/a
214.47006229	0.016758046999981163	5.516758046999981	n/a	15	choice2	n/a	1	n/a
219.98682033699998	1.5	n/a	n/a	15	outcome	n/a	n/a	1
221.48682033699998	8.100242238000035	10.583633203000034	n/a	15	ITI_onset	n/a	n/a	n/a
229.587062575	0.4570252229999751	2.4833909649999986	0.4570252229999751	16	stim1	n/a	n/a	n/a
230.044087798	0.009707144000014522	2.0263657420000234	n/a	16	choice1	1	n/a	n/a
232.07045354000002	0.5869336119999935	5.600013986999984	0.5869336119999935	16	stim2	n/a	1	n/a
232.657387152	0.013080374999990454	5.013080374999991	n/a	16	choice2	n/a	1	n/a
237.670467527	1.5	n/a	n/a	16	outcome	n/a	n/a	0
239.170467527	3.5668153260000106	8.100240473000012	n/a	16	ITI_onset	n/a	n/a	n/a
242.73728285299998	0.5121049770000391	4.533425147000002	0.5121049770000391	17	stim1	n/a	n/a	n/a
243.24938783000002	0.004565330999961589	4.021320169999963	n/a	17	choice1	1	n/a	n/a
247.27070799999998	0.3407576509999926	5.349994498000014	0.3407576509999926	17	stim2	n/a	1	n/a
247.61146565099997	0.009236847000021952	5.009236847000022	n/a	17	choice2	n/a	1	n/a
252.62070249800004	1.5	n/a	n/a	17	outcome	n/a	n/a	1
254.12070249800004	2.566812438999943	10.066922634999965	n/a	17	ITI_onset	n/a	n/a	n/a
256.68751493699995	0.4766044030000339	7.500110196000024	0.4766044030000339	18	stim1	n/a	n/a	n/a
257.16411933999996	0.0067220820000511595	7.023505792999989	n/a	18	choice1	1	n/a	n/a
264.187625133	0.8879256279999972	3.4000349350000616	0.8879256279999972	18	stim2	n/a	1	n/a
265.07555076099993	0.01210930700006429	2.512109307000064	n/a	18	choice2	n/a	1	n/a
267.58766006800005	1.5	n/a	n/a	18	outcome	n/a	n/a	0
269.08766006800005	2.566729511999991	5.650278824999987	n/a	18	ITI_onset	n/a	n/a	n/a
271.65438958	0.5521599749999586	3.083549312999996	0.5521599749999586	19	stim1	n/a	n/a	n/a
272.206549555	0.0145175670000026	2.531389338000037	n/a	19	choice1	0	n/a	n/a
274.73793889300003	0.6711235669999732	3.1831969439999668	0.6711235669999732	19	stim2	n/a	0	n/a
275.40906246	0.012073376999993344	2.5120733769999934	n/a	19	choice2	n/a	0	n/a
277.92113583699995	1.5	n/a	n/a	19	outcome	n/a	n/a	0
279.42113583699995	2.566817412000033	8.433537396	n/a	19	ITI_onset	n/a	n/a	n/a
281.987953249	0.345427241999947	5.866719983999967	0.345427241999947	20	stim1	n/a	n/a	n/a
282.33338049099996	0.004537422000023071	5.5212927420000195	n/a	20	choice1	0	n/a	n/a
287.85467323299997	0.41079575200000545	7.416673163000029	0.41079575200000545	20	stim2	n/a	0	n/a
288.265468985	0.005877411000023131	7.005877411000023	n/a	20	choice2	n/a	0	n/a
295.271346396	1.5	n/a	n/a	20	outcome	n/a	n/a	1
296.771346396	3.5668775619999504	6.650248829999997	n/a	20	ITI_onset	n/a	n/a	n/a
300.33822395799996	0.5594040010000463	3.0833712680000462	0.5594040010000463	21	stim1	n/a	n/a	n/a
300.897627959	0.007254934000025969	2.523967267	n/a	21	choice1	0	n/a	n/a
303.421595226	0.5324191119999742	3.0500163769999635	0.5324191119999742	21	stim2	n/a	0	n/a
303.954014338	0.01759726499998942	2.5175972649999894	n/a	21	choice2	n/a	0	n/a
306.471611603	1.5	n/a	n/a	21	outcome	n/a	n/a	0
307.971611603	2.566757421000046	8.666918175	n/a	21	ITI_onset	n/a	n/a	n/a
310.538369024	0.5627268669999321	6.100160753999953	0.5627268669999321	22	stim1	n/a	n/a	n/a
311.10109589099994	0.02065611100004753	5.537433887000021	n/a	22	choice1	1	n/a	n/a
316.63852977799996	0.579782938999997	3.599974848999991	0.579782938999997	22	stim2	n/a	1	n/a
317.21831271699995	0.020191909999994095	3.020191909999994	n/a	22	choice2	n/a	1	n/a
320.23850462699994	1.5	n/a	n/a	22	outcome	n/a	n/a	0
321.73850462699994	4.066805221000046	6.950174500000023	n/a	22	ITI_onset	n/a	n/a	n/a
325.805309848	0.3580738929999643	2.883369278999977	0.3580738929999643	23	stim1	n/a	n/a	n/a
326.16338374099996	0.00857727900001919	2.5252953860000127	n/a	23	choice1	1	n/a	n/a
328.688679127	0.34136877800000365	3.349999630999984	0.34136877800000365	23	stim2	n/a	1	n/a
329.030047905	0.008630852999980562	3.0086308529999806	n/a	23	choice2	n/a	1	n/a
332.03867875799995	1.5	n/a	n/a	23	outcome	n/a	n/a	1
333.53867875799995	6.0667959180000475	11.450285337000038	n/a	23	ITI_onset	n/a	n/a	n/a
339.60547467600003	0.34753106099995784	5.38348941899999	0.34753106099995784	24	stim1	n/a	n/a	n/a
339.95300573699996	0.01919164999999339	5.035958358000032	n/a	24	choice1	1	n/a	n/a
344.988964095	0.8530336149999639	6.866659031999996	0.8530336149999639	24	stim2	n/a	0	n/a
345.84199771	0.01362541700003203	6.013625417000032	n/a	24	choice2	n/a	0	n/a
351.855623127	1.5	n/a	n/a	24	outcome	n/a	n/a	1
353.355623127	2.56682847899996	9.683618958999984	n/a	24	ITI_onset	n/a	n/a	n/a
355.922451606	1.0848755080000265	7.1167904800000255	1.0848755080000265	25	stim1	n/a	n/a	n/a
357.00732711399996	0.015085385999991558	6.031914971999998	n/a	25	choice1	1	n/a	n/a
363.039242086	0.7041953510000021	7.2166758259999915	0.7041953510000021	25	stim2	n/a	1	n/a
363.74343743699995	0.012480474999989383	6.51248047499999	n/a	25	choice2	n/a	1	n/a
370.255917912	1.5	n/a	n/a	25	outcome	n/a	n/a	0
371.755917912	1.0	1.0	n/a	25	ITI_onset	n/a	n/a	n/a
