onset	duration	duration2fb	response_time	trial	event	choice1	state	reward
0.0	1.0016085020000027	4.616731565000009	1.0016085020000027	1	stim1	n/a	n/a	n/a
1.0016085020000105	0.015536672000002	3.615123063000006	n/a	1	choice1	1	n/a	n/a
4.616731565000009	1.027796543999997	6.5502934370000006	1.027796543999997	1	stim2	n/a	0	n/a
5.644528109000007	0.022496893000003182	5.522496893000003	n/a	1	choice2	n/a	0	n/a
11.167025002000017	1.5	n/a	n/a	1	outcome	n/a	n/a	1
12.667025002000017	2.0665350099999924	8.850082735000004	n/a	1	ITI_onset	n/a	n/a	n/a
14.733560011999998	1.2560187300000107	6.783547725000012	1.2560187300000107	2	stim1	n/a	n/a	n/a
15.98957874200002	0.010694902000002912	5.527528995000001	n/a	2	choice1	1	n/a	n/a
21.517107737000018	0.5950004269999918	3.099900358999992	0.5950004269999918	2	stim2	n/a	0	n/a
22.112108164000006	0.004899932000000263	2.5048999320000003	n/a	2	choice2	n/a	0	n/a
24.617008096000006	1.5	n/a	n/a	2	outcome	n/a	n/a	1
26.117008096000006	2.566842338000002	8.566945636000003	n/a	2	ITI_onset	n/a	n/a	n/a
28.683850434000007	0.971808869000015	6.000103298000002	0.971808869000015	3	stim1	n/a	n/a	n/a
29.65565930300002	0.011801989999992657	5.0282944289999865	n/a	3	choice1	1	n/a	n/a
34.683953732000006	0.5383015319999976	4.049986430000004	0.5383015319999976	3	stim2	n/a	0	n/a
35.22225526400001	0.011684898000006797	3.5116848980000066	n/a	3	choice2	n/a	0	n/a
38.73394016200001	1.5	n/a	n/a	3	outcome	n/a	n/a	0
40.23394016200001	7.0668955909999935	13.483610538999987	n/a	3	ITI_onset	n/a	n/a	n/a
47.300835753	3.3863834239999995	6.416714947999994	3.3863834239999995	4	stim1	n/a	n/a	n/a
50.687219177	0.013641792000009445	3.030331523999994	n/a	4	choice1	0	n/a	n/a
53.71755070100001	0.7200946620000177	2.733349566000019	0.7200946620000177	4	stim2	n/a	0	n/a
54.437645363000016	0.01325490400000126	2.0132549040000014	n/a	4	choice2	n/a	0	n/a
56.45090026700002	1.5	n/a	n/a	4	outcome	n/a	n/a	1
57.95090026700002	2.566822447999992	9.300268254999988	n/a	4	ITI_onset	n/a	n/a	n/a
60.517722715000005	1.7080094030000037	6.733445806999996	1.7080094030000037	5	stim1	n/a	n/a	n/a
62.22573211800001	0.008639523000005284	5.025436403999993	n/a	5	choice1	0	n/a	n/a
67.25116852200001	0.8165762319999922	2.833336540999997	0.8165762319999922	5	stim2	n/a	0	n/a
68.067744754	0.016760309000004782	2.016760309000005	n/a	5	choice2	n/a	0	n/a
70.08450506300001	1.5	n/a	n/a	5	outcome	n/a	n/a	0
71.58450506300001	2.566809615999984	9.333526134999993	n/a	5	ITI_onset	n/a	n/a	n/a
74.15131467899998	3.2393193730000056	6.766716519000009	3.2393193730000056	6	stim1	n/a	n/a	n/a
77.39063405199998	0.010666351000021678	3.527397146000003	n/a	6	choice1	1	n/a	n/a
80.91803119800001	1.695651142000017	6.716701217000024	1.695651142000017	6	stim2	n/a	1	n/a
82.61368234000001	0.021050075000006472	5.021050075000007	n/a	6	choice2	n/a	1	n/a
87.63473241500002	1.5	n/a	n/a	6	outcome	n/a	n/a	0
89.13473241500002	6.566895270999987	10.233654970000003	n/a	6	ITI_onset	n/a	n/a	n/a
95.70162768600001	1.6370155640000013	3.6667596990000164	1.6370155640000013	7	stim1	n/a	n/a	n/a
97.33864325	0.013017831000004662	2.029744135000015	n/a	7	choice1	0	n/a	n/a
99.36838738500002	0.6443266459999722	3.649989765999984	0.6443266459999722	7	stim2	n/a	1	n/a
100.01271403099999	0.005663120000011986	3.005663120000012	n/a	7	choice2	n/a	1	n/a
103.018377151	1.5	n/a	n/a	7	outcome	n/a	n/a	0
104.518377151	4.566834639000008	11.166915929999988	n/a	7	ITI_onset	n/a	n/a	n/a
109.08521179000003	2.574323444000009	6.60008129099998	2.574323444000009	8	stim1	n/a	n/a	n/a
111.65953523400002	0.009019031999981962	4.025757846999972	n/a	8	choice1	1	n/a	n/a
115.68529308099998	1.5272601640000065	3.5333538009999903	1.5272601640000065	8	stim2	n/a	0	n/a
117.212553245	0.006093636999983574	2.0060936369999838	n/a	8	choice2	n/a	0	n/a
119.21864688199999	1.5	n/a	n/a	8	outcome	n/a	n/a	1
120.71864688199999	5.566856132000044	13.617034402000048	n/a	8	ITI_onset	n/a	n/a	n/a
126.28550301400004	2.5260189799999933	8.050178270000004	2.5260189799999933	9	stim1	n/a	n/a	n/a
128.81152199400003	0.007354389999993146	5.524159290000011	n/a	9	choice1	1	n/a	n/a
134.33568128400003	0.6591133799999952	4.666596089999977	0.6591133799999952	9	stim2	n/a	0	n/a
134.99479466400004	0.007482709999982034	4.007482709999982	n/a	9	choice2	n/a	0	n/a
139.00227737400002	1.5	n/a	n/a	9	outcome	n/a	n/a	1
140.50227737400002	4.066896553999977	8.967043993999978	n/a	9	ITI_onset	n/a	n/a	n/a
144.569173928	0.8715463240000245	4.9001474400000005	0.8715463240000245	10	stim1	n/a	n/a	n/a
145.440720252	0.011801027999987126	4.028601115999976	n/a	10	choice1	1	n/a	n/a
149.469321368	1.8209028920000128	4.833286497000023	1.8209028920000128	10	stim2	n/a	1	n/a
151.29022426	0.012383605000009993	3.01238360500001	n/a	10	choice2	n/a	1	n/a
154.30260786500003	1.5	n/a	n/a	10	outcome	n/a	n/a	0
155.80260786500003	5.066810898999974	9.933677682000008	n/a	10	ITI_onset	n/a	n/a	n/a
160.869418764	0.8451876150000025	4.866866783000034	0.8451876150000025	11	stim1	n/a	n/a	n/a
161.71460637899997	0.004778669000021182	4.0216791680000314	n/a	11	choice1	1	n/a	n/a
165.73628554700002	1.8740335029999842	3.883276775999984	1.8740335029999842	11	stim2	n/a	1	n/a
167.61031905	0.009243273000000045	2.009243273	n/a	11	choice2	n/a	1	n/a
169.61956232300003	1.5	n/a	n/a	11	outcome	n/a	n/a	0
171.11956232300003	3.566803842000023	8.316878749000026	n/a	11	ITI_onset	n/a	n/a	n/a
174.68636616500004	1.215213977999956	4.750074907000002	1.215213977999956	12	stim1	n/a	n/a	n/a
175.901580143	0.018177292000007582	3.534860929000046	n/a	12	choice1	0	n/a	n/a
179.43644107200004	0.5198775429999805	3.0333165869999794	0.5198775429999805	12	stim2	n/a	1	n/a
179.956318615	0.01343904399999883	2.5134390439999987	n/a	12	choice2	n/a	1	n/a
182.46975765900004	1.5	n/a	n/a	12	outcome	n/a	n/a	1
183.96975765900004	8.06687987199999	16.217034852000012	n/a	12	ITI_onset	n/a	n/a	n/a
192.036637531	2.1287404730000126	8.150154980000021	2.1287404730000126	13	stim1	n/a	n/a	n/a
194.16537800400005	0.00459805700002471	6.021414507000008	n/a	13	choice1	1	n/a	n/a
200.18679251100002	1.0088371369999949	3.016683956999972	1.0088371369999949	13	stim2	n/a	1	n/a
201.19562964800002	0.007846819999977016	2.007846819999977	n/a	13	choice2	n/a	1	n/a
203.20347646800002	1.5	n/a	n/a	13	outcome	n/a	n/a	0
204.70347646800002	3.5668705690000206	10.383558762000058	n/a	13	ITI_onset	n/a	n/a	n/a
208.27034703700002	1.7824448080000002	6.816688193000038	1.7824448080000002	14	stim1	n/a	n/a	n/a
210.052791845	0.017469281000026968	5.034243385000038	n/a	14	choice1	0	n/a	n/a
215.08703523000008	0.49128412599995497	3.999962465999939	0.49128412599995497	14	stim2	n/a	1	n/a
215.578319356	0.008678339999984018	3.508678339999984	n/a	14	choice2	n/a	1	n/a
219.08699769600003	1.5	n/a	n/a	14	outcome	n/a	n/a	0
220.58699769600003	5.566870568000013	10.38363607399998	n/a	14	ITI_onset	n/a	n/a	n/a
226.15386826400004	0.79599260399997	4.816765505999967	0.79599260399997	15	stim1	n/a	n/a	n/a
226.94986086799997	0.004028312000038568	4.020772901999997	n/a	15	choice1	1	n/a	n/a
230.97063377	1.1236888010000112	3.1333548910000246	1.1236888010000112	15	stim2	n/a	0	n/a
232.09432257100002	0.009666090000013354	2.0096660900000134	n/a	15	choice2	n/a	0	n/a
234.10398866100002	1.5	n/a	n/a	15	outcome	n/a	n/a	1
235.60398866100002	7.066870248000021	11.966998761000054	n/a	15	ITI_onset	n/a	n/a	n/a
242.67085890900006	0.8747184160000179	4.900128513000032	0.8747184160000179	16	stim1	n/a	n/a	n/a
243.54557732500007	0.008601988999929745	4.025410097000014	n/a	16	choice1	1	n/a	n/a
247.5709874220001	0.6787028429999482	6.199942832999979	0.6787028429999482	16	stim2	n/a	1	n/a
248.24969026500003	0.021239990000030958	5.521239990000031	n/a	16	choice2	n/a	1	n/a
253.77093025500005	1.5	n/a	n/a	16	outcome	n/a	n/a	0
255.27093025500005	8.066927350999961	12.700424998999981	n/a	16	ITI_onset	n/a	n/a	n/a
263.337857606	2.6078405330000094	4.633497648000018	2.6078405330000094	17	stim1	n/a	n/a	n/a
265.945698139	0.008885577999986708	2.025657115000009	n/a	17	choice1	0	n/a	n/a
267.971355254	0.4682575889999862	6.983246106999984	0.4682575889999862	17	stim2	n/a	1	n/a
268.439612843	0.014988517999998294	6.514988517999998	n/a	17	choice2	n/a	1	n/a
274.954601361	1.5	n/a	n/a	17	outcome	n/a	n/a	0
276.454601361	7.566950769000046	10.86711187600001	n/a	17	ITI_onset	n/a	n/a	n/a
284.02155213000003	0.776323260999925	3.3001611069999637	0.776323260999925	18	stim1	n/a	n/a	n/a
284.797875391	0.007045457000029273	2.5238378460000384	n/a	18	choice1	1	n/a	n/a
287.32171323700004	0.7759838519999758	4.783289158999978	0.7759838519999758	18	stim2	n/a	0	n/a
288.097697089	0.007305307000002358	4.007305307000002	n/a	18	choice2	n/a	0	n/a
292.105002396	1.5	n/a	n/a	18	outcome	n/a	n/a	0
293.605002396	3.066794859000016	9.966913428000058	n/a	18	ITI_onset	n/a	n/a	n/a
296.671797255	1.8755050230000052	6.900118569000042	1.8755050230000052	19	stim1	n/a	n/a	n/a
298.547302278	0.007839762999967206	5.024613546000037	n/a	19	choice1	1	n/a	n/a
303.57191582400003	0.565908162000007	4.083269654000003	0.565908162000007	19	stim2	n/a	0	n/a
304.13782398600006	0.01736149199999636	3.5173614919999965	n/a	19	choice2	n/a	0	n/a
307.6551854780001	1.5	n/a	n/a	19	outcome	n/a	n/a	0
309.1551854780001	6.066958467999939	13.217142960999976	n/a	19	ITI_onset	n/a	n/a	n/a
315.222143946	1.6176314150000108	7.150184493000037	1.6176314150000108	20	stim1	n/a	n/a	n/a
316.839775361	0.015658033000014258	5.532553078000026	n/a	20	choice1	0	n/a	n/a
322.37232843900006	0.6123683350000065	6.13322239999997	0.6123683350000065	20	stim2	n/a	1	n/a
322.98469677400004	0.020854064999963156	5.520854064999964	n/a	20	choice2	n/a	1	n/a
328.505550839	1.5	n/a	n/a	20	outcome	n/a	n/a	1
330.005550839	3.5668808350000183	7.4502852900000285	n/a	20	ITI_onset	n/a	n/a	n/a
333.57243167400003	1.8609014669999597	3.8834044550000106	1.8609014669999597	21	stim1	n/a	n/a	n/a
335.433333141	0.005819671000004746	2.022502988000051	n/a	21	choice1	0	n/a	n/a
337.45583612900003	0.6149321849999833	3.1332977880000255	0.6149321849999833	21	stim2	n/a	1	n/a
338.070768314	0.01836560300004203	2.518365603000042	n/a	21	choice2	n/a	1	n/a
340.5891339170001	1.5	n/a	n/a	21	outcome	n/a	n/a	1
342.0891339170001	8.066919650999946	13.53369224699994	n/a	21	ITI_onset	n/a	n/a	n/a
350.156053568	1.4447139190000016	5.466772595999995	1.4447139190000016	22	stim1	n/a	n/a	n/a
351.600767487	0.005271421000012197	4.022058676999993	n/a	22	choice1	0	n/a	n/a
355.622826164	1.5272457270000013	7.5500085650000255	1.5272457270000013	22	stim2	n/a	1	n/a
357.150071891	0.022762838000024203	6.022762838000024	n/a	22	choice2	n/a	1	n/a
363.17283472900004	1.5	n/a	n/a	22	outcome	n/a	n/a	1
364.67283472900004	5.600477161999967	12.083657825000001	n/a	22	ITI_onset	n/a	n/a	n/a
370.273311891	2.4505236450000085	6.483180663000035	2.4505236450000085	23	stim1	n/a	n/a	n/a
372.723835536	0.01590312500001164	4.032657018000027	n/a	23	choice1	0	n/a	n/a
376.75649255400003	0.5603547560000443	3.0667018270000117	0.5603547560000443	23	stim2	n/a	1	n/a
377.31684731000007	0.0063470709999674	2.5063470709999676	n/a	23	choice2	n/a	1	n/a
379.82319438100006	1.5	n/a	n/a	23	outcome	n/a	n/a	0
381.32319438100006	2.566769835999992	6.133582660999964	n/a	23	ITI_onset	n/a	n/a	n/a
383.88996421700006	1.5369201579999645	3.566812824999972	1.5369201579999645	24	stim1	n/a	n/a	n/a
385.426884375	0.013081671000050846	2.0298926670000075	n/a	24	choice1	1	n/a	n/a
387.456777042	0.5739772979999543	3.5832651620000253	0.5739772979999543	24	stim2	n/a	0	n/a
388.03075433999993	0.00928786400007084	3.0092878640000706	n/a	24	choice2	n/a	0	n/a
391.04004220400003	1.5	n/a	n/a	24	outcome	n/a	n/a	0
392.54004220400003	3.0667695160000004	10.617100809000025	n/a	24	ITI_onset	n/a	n/a	n/a
395.60681172000005	1.019131357999984	7.550331293000025	1.019131357999984	25	stim1	n/a	n/a	n/a
396.62594307800003	0.014249390000011773	6.531199935000041	n/a	25	choice1	0	n/a	n/a
403.15714301300005	0.7452109049999853	3.2664791249999543	0.7452109049999853	25	stim2	n/a	0	n/a
403.902353918	0.021268219999969005	2.521268219999969	n/a	25	choice2	n/a	0	n/a
406.423622138	1.5	n/a	n/a	25	outcome	n/a	n/a	0
407.923622138	1.0	1.0	n/a	25	ITI_onset	n/a	n/a	n/a
