onset	duration	duration2fb	response_time	trial	event	choice1	state	reward
0.0	0.7284764350000005	4.266789170000004	0.7284764350000005	1	stim1	n/a	n/a	n/a
0.728476435000001	0.021912377000000562	3.538312735000003	n/a	1	choice1	1	n/a	n/a
4.266789170000006	0.660068304999997	4.166627421999998	0.660068304999997	1	stim2	n/a	1	n/a
4.926857475000002	0.006559117000000697	3.5065591170000006	n/a	1	choice2	n/a	1	n/a
8.433416592000004	1.5	n/a	n/a	1	outcome	n/a	n/a	1
9.933416592000004	6.566949443000001	12.083653280000002	n/a	1	ITI_onset	n/a	n/a	n/a
16.500366035000006	0.4891158309999955	5.5167038370000006	0.4891158309999955	2	stim1	n/a	n/a	n/a
16.989481866	0.010809743000005255	5.0275880060000055	n/a	2	choice1	1	n/a	n/a
22.017069872000008	0.5298124460000035	4.549994097000003	0.5298124460000035	2	stim2	n/a	0	n/a
22.54688231800001	0.020181650999998964	4.020181650999999	n/a	2	choice2	n/a	0	n/a
26.56706396900001	1.5	n/a	n/a	2	outcome	n/a	n/a	0
28.06706396900001	4.066870525999999	10.150258181999991	n/a	2	ITI_onset	n/a	n/a	n/a
32.133934495000005	0.5559042319999935	6.083387655999991	0.5559042319999935	3	stim1	n/a	n/a	n/a
32.689838727	0.010760658999999577	5.527483423999998	n/a	3	choice1	1	n/a	n/a
38.217322151	0.706635596	7.716697228000012	0.706635596	3	stim2	n/a	0	n/a
38.923957746999996	0.010061632000011742	7.010061632000012	n/a	3	choice2	n/a	0	n/a
45.93401937900001	1.5	n/a	n/a	3	outcome	n/a	n/a	0
47.43401937900001	4.5668641099999805	9.666965225999986	n/a	3	ITI_onset	n/a	n/a	n/a
52.000883488999996	0.5730927999999985	5.100101116000006	0.5730927999999985	4	stim1	n/a	n/a	n/a
52.573976288999994	0.010225241000007372	4.527008316000007	n/a	4	choice1	0	n/a	n/a
57.100984605	0.6359664550000016	3.149937380000003	0.6359664550000016	4	stim2	n/a	1	n/a
57.73695106	0.013970925000001444	2.5139709250000015	n/a	4	choice2	n/a	1	n/a
60.25092198500001	1.5	n/a	n/a	4	outcome	n/a	n/a	1
61.75092198500001	5.066908058999994	10.750279738999991	n/a	4	ITI_onset	n/a	n/a	n/a
66.817830044	0.6576581199999928	5.683371679999997	0.6576581199999928	5	stim1	n/a	n/a	n/a
67.47548816399998	0.008998495000007097	5.025713560000003	n/a	5	choice1	0	n/a	n/a
72.501201724	0.9276408740000043	4.933344091000007	0.9276408740000043	5	stim2	n/a	0	n/a
73.42884259799999	0.005703217000002042	4.005703217000002	n/a	5	choice2	n/a	0	n/a
77.434545815	1.5	n/a	n/a	5	outcome	n/a	n/a	0
78.934545815	7.066873733999993	9.566959709000002	n/a	5	ITI_onset	n/a	n/a	n/a
86.00141954899999	0.46753420000000917	2.500085975000009	0.46753420000000917	6	stim1	n/a	n/a	n/a
86.46895374900001	0.01590311600000132	2.032551775	n/a	6	choice1	1	n/a	n/a
88.50150552400001	0.6979922289999959	5.216685357999988	0.6979922289999959	6	stim2	n/a	0	n/a
89.199497753	0.01869312899999204	4.518693128999992	n/a	6	choice2	n/a	0	n/a
93.71819088199999	1.5	n/a	n/a	6	outcome	n/a	n/a	0
95.21819088199999	4.066817594000008	8.716864687000008	n/a	6	ITI_onset	n/a	n/a	n/a
99.285008476	0.6268977039999881	4.650047093000001	0.6268977039999881	7	stim1	n/a	n/a	n/a
99.91190617999999	0.00638812900002813	4.023149389000013	n/a	7	choice1	0	n/a	n/a
103.93505556900001	0.3986891389999946	5.916713397	0.3986891389999946	7	stim2	n/a	1	n/a
104.33374470799998	0.01802425800000492	5.518024258000005	n/a	7	choice2	n/a	1	n/a
109.85176896599998	1.5	n/a	n/a	7	outcome	n/a	n/a	0
111.35176896599998	6.566843899000014	11.533593418000018	n/a	7	ITI_onset	n/a	n/a	n/a
117.918612865	0.44486120200000007	4.966749519000005	0.44486120200000007	8	stim1	n/a	n/a	n/a
118.363474067	0.005154645999980858	4.521888317000005	n/a	8	choice1	1	n/a	n/a
122.88536238400002	0.5055832379999919	7.01658738599997	0.5055832379999919	8	stim2	n/a	0	n/a
123.390945622	0.011004147999978158	6.511004147999978	n/a	8	choice2	n/a	0	n/a
129.90194977	1.5	n/a	n/a	8	outcome	n/a	n/a	0
131.40194977	5.06701103699999	12.117055821000017	n/a	8	ITI_onset	n/a	n/a	n/a
136.46896080699997	0.5219572900000203	7.050044784000027	0.5219572900000203	9	stim1	n/a	n/a	n/a
136.990918097	0.011337462000024971	6.528087494000006	n/a	9	choice1	1	n/a	n/a
143.519005591	0.7018235669999849	4.2166892079999965	0.7018235669999849	9	stim2	n/a	0	n/a
144.220829158	0.014865641000011238	3.514865641000011	n/a	9	choice2	n/a	0	n/a
147.735694799	1.5	n/a	n/a	9	outcome	n/a	n/a	1
149.235694799	2.0668121399999944	6.800214808999997	n/a	9	ITI_onset	n/a	n/a	n/a
151.30250693899998	0.7069673049999983	4.733402669000003	0.7069673049999983	10	stim1	n/a	n/a	n/a
152.009474244	0.00968789800000377	4.026435364000005	n/a	10	choice1	1	n/a	n/a
156.035909608	0.4819767050000082	2.5000279100000045	0.4819767050000082	10	stim2	n/a	0	n/a
156.517886313	0.018051204999996115	2.018051204999996	n/a	10	choice2	n/a	0	n/a
158.535937518	1.5	n/a	n/a	10	outcome	n/a	n/a	0
160.035937518	8.566855448000016	12.133526756000007	n/a	10	ITI_onset	n/a	n/a	n/a
168.602792966	0.5401711409999698	3.56667130799999	0.5401711409999698	11	stim1	n/a	n/a	n/a
169.14296410699998	0.009777723000006518	3.02650016700002	n/a	11	choice1	1	n/a	n/a
172.169464274	0.5844366779999982	3.1000703189999914	0.5844366779999982	11	stim2	n/a	0	n/a
172.753900952	0.015633640999993075	2.515633640999993	n/a	11	choice2	n/a	0	n/a
175.269534593	1.5	n/a	n/a	11	outcome	n/a	n/a	1
176.769534593	6.566780380999989	9.116857245000022	n/a	11	ITI_onset	n/a	n/a	n/a
183.33631497399998	0.5145143630000238	2.5500768640000313	0.5145143630000238	12	stim1	n/a	n/a	n/a
183.85082933700002	0.018875024999986636	2.035562501000008	n/a	12	choice1	1	n/a	n/a
185.886391838	0.8764405609999667	3.8833268959999843	0.8764405609999667	12	stim2	n/a	0	n/a
186.762832399	0.006886335000017425	3.0068863350000172	n/a	12	choice2	n/a	0	n/a
189.769718734	1.5	n/a	n/a	12	outcome	n/a	n/a	1
191.269718734	4.066822726000013	9.116897344000026	n/a	12	ITI_onset	n/a	n/a	n/a
195.33654146	0.5259740509999974	5.050074618000013	0.5259740509999974	13	stim1	n/a	n/a	n/a
195.862515511	0.007341231999977026	4.524100567000016	n/a	13	choice1	1	n/a	n/a
200.38661607800003	0.394298643999995	2.899969459999964	0.394298643999995	13	stim2	n/a	0	n/a
200.78091472200003	0.005670815999968909	2.5056708159999688	n/a	13	choice2	n/a	0	n/a
203.286585538	1.5	n/a	n/a	13	outcome	n/a	n/a	1
204.786585538	4.566843898999999	10.816964521000017	n/a	13	ITI_onset	n/a	n/a	n/a
209.353429437	0.724935422999988	6.250120622000017	0.724935422999988	14	stim1	n/a	n/a	n/a
210.07836485999997	0.008432920999999623	5.5251851990000285	n/a	14	choice1	1	n/a	n/a
215.603550059	0.5768468239999783	2.5833363269999974	0.5768468239999783	14	stim2	n/a	0	n/a
216.180396883	0.006489503000018886	2.0064895030000187	n/a	14	choice2	n/a	0	n/a
218.186886386	1.5	n/a	n/a	14	outcome	n/a	n/a	0
219.686886386	5.566780700999981	10.116897665999975	n/a	14	ITI_onset	n/a	n/a	n/a
225.253667087	0.5212675660000241	4.550116964999994	0.5212675660000241	15	stim1	n/a	n/a	n/a
225.774934653	0.012074344000022393	4.02884939899997	n/a	15	choice1	1	n/a	n/a
229.80378405199997	0.597633507999999	4.116623699999996	0.597633507999999	15	stim2	n/a	0	n/a
230.40141755999997	0.018990191999997477	3.5189901919999973	n/a	15	choice2	n/a	0	n/a
233.920407752	1.5	n/a	n/a	15	outcome	n/a	n/a	1
235.420407752	4.5668836790000205	8.616895099000017	n/a	15	ITI_onset	n/a	n/a	n/a
239.98729143100002	0.5265694589999912	4.050011419999995	0.5265694589999912	16	stim1	n/a	n/a	n/a
240.51386089	0.006707969000010053	3.523441961000004	n/a	16	choice1	1	n/a	n/a
244.037302851	0.5605542560000322	3.0666648919999715	0.5605542560000322	16	stim2	n/a	0	n/a
244.59785710700004	0.006110635999939404	2.5061106359999394	n/a	16	choice2	n/a	0	n/a
247.10396774299994	1.5	n/a	n/a	16	outcome	n/a	n/a	1
248.60396774299994	3.0668156680000247	7.18354972499999	n/a	16	ITI_onset	n/a	n/a	n/a
251.670783411	0.5889888580000261	4.116734056999965	0.5889888580000261	17	stim1	n/a	n/a	n/a
252.259772269	0.011111296999966725	3.527745198999939	n/a	17	choice1	1	n/a	n/a
255.78751746799998	0.8588609350000624	3.3666567430000285	0.8588609350000624	17	stim2	n/a	0	n/a
256.646378403	0.0077958079999662	2.5077958079999663	n/a	17	choice2	n/a	0	n/a
259.154174211	1.5	n/a	n/a	17	outcome	n/a	n/a	1
260.654174211	5.066906134999997	7.900225459999987	n/a	17	ITI_onset	n/a	n/a	n/a
265.72108034599995	0.8073366120000137	2.8333193249999895	0.8073366120000137	18	stim1	n/a	n/a	n/a
266.528416958	0.009238774999976157	2.025982712999976	n/a	18	choice1	1	n/a	n/a
268.55439967099994	0.4474702840000391	2.466679263000027	0.4474702840000391	18	stim2	n/a	0	n/a
269.001869955	0.019208978999988177	2.019208978999988	n/a	18	choice2	n/a	0	n/a
271.021078934	1.5	n/a	n/a	18	outcome	n/a	n/a	1
272.521078934	7.083520788999973	12.850208585000015	n/a	18	ITI_onset	n/a	n/a	n/a
279.604599723	0.7451834789999994	5.766687796000042	0.7451834789999994	19	stim1	n/a	n/a	n/a
280.34978320199997	0.004792461000033654	5.021504317000042	n/a	19	choice1	1	n/a	n/a
285.371287519	1.4466201589999836	5.9667568979999634	1.4466201589999836	19	stim2	n/a	0	n/a
286.817907678	0.02013673899997957	4.520136738999979	n/a	19	choice2	n/a	0	n/a
291.338044417	1.5	n/a	n/a	19	outcome	n/a	n/a	1
292.838044417	2.066763378000003	5.150152958000021	n/a	19	ITI_onset	n/a	n/a	n/a
294.90480779499995	0.5565644420000025	3.0833895800000173	0.5565644420000025	20	stim1	n/a	n/a	n/a
295.461372237	0.010104620000056456	2.5268251380000146	n/a	20	choice1	1	n/a	n/a
297.98819737499997	0.4627767079999903	3.4666860009999945	0.4627767079999903	20	stim2	n/a	0	n/a
298.450974083	0.003909293000004254	3.0039092930000044	n/a	20	choice2	n/a	0	n/a
301.454883376	1.5	n/a	n/a	20	outcome	n/a	n/a	1
302.954883376	6.566861543000035	9.700247146000038	n/a	20	ITI_onset	n/a	n/a	n/a
309.521744919	0.6031022189999931	3.1333856030000025	0.6031022189999931	21	stim1	n/a	n/a	n/a
310.124847138	0.013528538999962621	2.5302833840000094	n/a	21	choice1	1	n/a	n/a
312.65513052200004	0.5908292979999679	3.6000202739999514	0.5908292979999679	21	stim2	n/a	1	n/a
313.24595982	0.009190975999983492	3.0091909759999833	n/a	21	choice2	n/a	1	n/a
316.25515079599995	1.5	n/a	n/a	21	outcome	n/a	n/a	0
317.75515079599995	2.566778456000029	5.3168368420000185	n/a	21	ITI_onset	n/a	n/a	n/a
320.321929252	0.7141616090000025	2.75005838599999	0.7141616090000025	22	stim1	n/a	n/a	n/a
321.036090861	0.019203525999968406	2.035896776999987	n/a	22	choice1	1	n/a	n/a
323.071987638	0.7956376060000039	4.816659117000003	0.7956376060000039	22	stim2	n/a	0	n/a
323.867625244	0.021021510999999007	4.021021510999999	n/a	22	choice2	n/a	0	n/a
327.888646755	1.5	n/a	n/a	22	outcome	n/a	n/a	0
329.388646755	4.566798345000017	8.166863852999988	n/a	22	ITI_onset	n/a	n/a	n/a
333.9554451	0.5749592260000063	3.6000655079999704	0.5749592260000063	23	stim1	n/a	n/a	n/a
334.530404326	0.00837357300001895	3.0251062819999643	n/a	23	choice1	1	n/a	n/a
337.55551060799996	0.5242465320000192	4.0333367760000405	0.5242465320000192	23	stim2	n/a	0	n/a
338.07975714	0.009090244000020902	3.509090244000021	n/a	23	choice2	n/a	0	n/a
341.588847384	1.5	n/a	n/a	23	outcome	n/a	n/a	1
343.088847384	3.0667614529999554	8.883561722999962	n/a	23	ITI_onset	n/a	n/a	n/a
346.155608837	0.7892135479999706	5.816800270000007	0.7892135479999706	24	stim1	n/a	n/a	n/a
346.94482238499995	0.010811347000068054	5.027586722000036	n/a	24	choice1	1	n/a	n/a
351.972409107	0.6764802129999734	7.183336392000027	0.6764802129999734	24	stim2	n/a	0	n/a
352.64888931999997	0.006856179000053089	6.506856179000053	n/a	24	choice2	n/a	0	n/a
359.15574549900003	1.5	n/a	n/a	24	outcome	n/a	n/a	1
360.65574549900003	8.066943027	11.167011421999952	n/a	24	ITI_onset	n/a	n/a	n/a
368.722688526	0.5640586960000219	3.1000683949999512	0.5640586960000219	25	stim1	n/a	n/a	n/a
369.28674722200003	0.01931869399995776	2.5360096989999295	n/a	25	choice1	1	n/a	n/a
371.82275692099995	0.7604097020000335	4.766636147000012	0.7604097020000335	25	stim2	n/a	0	n/a
372.583166623	0.006226444999978412	4.006226444999978	n/a	25	choice2	n/a	0	n/a
376.589393068	1.5	n/a	n/a	25	outcome	n/a	n/a	1
378.089393068	1.0	1.0	n/a	25	ITI_onset	n/a	n/a	n/a
