onset	duration	duration2fb	response_time	trial	event	choice1	state	reward
0.0	1.4969390669999958	3.533335344000003	1.4969390669999958	1	stim1	n/a	n/a	n/a
1.496939066999996	0.01989454000000478	2.0363962770000072	n/a	1	choice1	1	n/a	n/a
3.5333353440000046	0.6165420939999967	7.133234707999996	0.6165420939999967	1	stim2	n/a	1	n/a
4.149877438000001	0.016692613999999596	6.516692613999999	n/a	1	choice2	n/a	1	n/a
10.666570052	1.5	n/a	n/a	1	outcome	n/a	n/a	1
12.166570052	3.5669996699999973	12.583753877999996	n/a	1	ITI_onset	n/a	n/a	n/a
15.733569721999995	2.9944196480000027	9.016754207999998	2.9944196480000027	2	stim1	n/a	n/a	n/a
18.72798937	0.005609223999999813	6.022334559999996	n/a	2	choice1	0	n/a	n/a
24.750323929999997	0.48841279000000215	2.999987970000009	0.48841279000000215	2	stim2	n/a	0	n/a
25.238736719999995	0.011575180000007094	2.511575180000007	n/a	2	choice2	n/a	0	n/a
27.750311900000003	1.5	n/a	n/a	2	outcome	n/a	n/a	0
29.250311900000003	4.067088371999998	12.400345567999997	n/a	2	ITI_onset	n/a	n/a	n/a
33.317400272	1.3084027360000037	8.333257195999998	1.3084027360000037	3	stim1	n/a	n/a	n/a
34.625803008000005	0.008013955999995232	7.024854459999995	n/a	3	choice1	1	n/a	n/a
41.65065746799999	0.3611425940000045	5.366644991000008	0.3611425940000045	3	stim2	n/a	1	n/a
42.011800062000006	0.005502397000003839	5.005502397000003	n/a	3	choice2	n/a	1	n/a
47.01730245900001	1.5	n/a	n/a	3	outcome	n/a	n/a	0
48.51730245900001	6.5668968529999985	11.217042320999987	n/a	3	ITI_onset	n/a	n/a	n/a
55.08419931200001	1.6158440289999854	4.650145467999988	1.6158440289999854	4	stim1	n/a	n/a	n/a
56.70004334099998	0.017480823999998393	3.0343014390000027	n/a	4	choice1	0	n/a	n/a
59.73434477999999	0.8336070310000069	2.849907944999999	0.8336070310000069	4	stim2	n/a	1	n/a
60.567951811	0.01630091399999219	2.0163009139999923	n/a	4	choice2	n/a	1	n/a
62.584252724999985	1.5	n/a	n/a	4	outcome	n/a	n/a	0
64.08425272499998	3.066814888000008	12.933698717000006	n/a	4	ITI_onset	n/a	n/a	n/a
67.151067613	2.828737255999993	9.866883828999999	2.828737255999993	5	stim1	n/a	n/a	n/a
69.97980486899999	0.021541857999996864	7.038146573000005	n/a	5	choice1	1	n/a	n/a
77.017951442	0.5895796430000045	4.599961118000007	0.5895796430000045	5	stim2	n/a	1	n/a
77.607531085	0.010381475000001956	4.010381475000002	n/a	5	choice2	n/a	1	n/a
81.61791256000001	1.5	n/a	n/a	5	outcome	n/a	n/a	1
83.11791256000001	2.56685418699999	7.083574871000004	n/a	5	ITI_onset	n/a	n/a	n/a
85.684766747	1.9830578009999882	4.516720684000014	1.9830578009999882	6	stim1	n/a	n/a	n/a
87.66782454799998	0.016927762000021176	2.5336628830000265	n/a	6	choice1	1	n/a	n/a
90.201487431	0.6649992439999769	7.183283357999986	0.6649992439999769	6	stim2	n/a	1	n/a
90.86648667499999	0.01828411400000914	6.518284114000009	n/a	6	choice2	n/a	1	n/a
97.384770789	1.5	n/a	n/a	6	outcome	n/a	n/a	1
98.88477078899999	4.0669529930000134	8.483694753999997	n/a	6	ITI_onset	n/a	n/a	n/a
102.95172378200002	1.3811109179999912	4.416741760999983	1.3811109179999912	7	stim1	n/a	n/a	n/a
104.3328347	0.018871180999994977	3.035630842999992	n/a	7	choice1	1	n/a	n/a
107.36846554299999	0.3214815150000213	2.8332652159999996	0.3214815150000213	7	stim2	n/a	0	n/a
107.689947058	0.011783700999978464	2.5117837009999784	n/a	7	choice2	n/a	0	n/a
110.20173075899999	1.5	n/a	n/a	7	outcome	n/a	n/a	0
111.70173075899999	4.566910486999986	10.867010545000026	n/a	7	ITI_onset	n/a	n/a	n/a
116.26864124599999	1.7781647370000138	6.30010005800004	1.7781647370000138	8	stim1	n/a	n/a	n/a
118.04680598299998	0.005106205999996746	4.521935321000027	n/a	8	choice1	0	n/a	n/a
122.56874130400001	0.6794192969999567	2.7001623579999725	0.6794192969999567	8	stim2	n/a	0	n/a
123.24816060099997	0.020743061000015585	2.0207430610000157	n/a	8	choice2	n/a	0	n/a
125.26890366199999	1.5	n/a	n/a	8	outcome	n/a	n/a	0
126.76890366199999	5.066634596999997	9.700061786999985	n/a	8	ITI_onset	n/a	n/a	n/a
131.83553825899997	1.0990421820000047	4.6334271899999875	1.0990421820000047	9	stim1	n/a	n/a	n/a
132.93458044099998	0.01759470899999724	3.534385007999983	n/a	9	choice1	1	n/a	n/a
136.46896544899997	0.28261634600002433	5.799908860000025	0.28261634600002433	9	stim2	n/a	1	n/a
136.751581795	0.017292514000000665	5.517292514000001	n/a	9	choice2	n/a	1	n/a
142.268874309	1.5	n/a	n/a	9	outcome	n/a	n/a	1
143.768874309	2.5669172240000044	8.367024821	n/a	9	ITI_onset	n/a	n/a	n/a
146.335791533	2.2770639039999807	5.800107596999995	2.2770639039999807	10	stim1	n/a	n/a	n/a
148.61285543699998	0.006247299000009662	3.523043693000014	n/a	10	choice1	1	n/a	n/a
152.13589912999998	0.574905515999999	7.083289355999994	0.574905515999999	10	stim2	n/a	1	n/a
152.71080464599999	0.008383839999994962	6.508383839999995	n/a	10	choice2	n/a	1	n/a
159.21918848599998	1.5	n/a	n/a	10	outcome	n/a	n/a	1
160.71918848599998	2.566858517000015	6.950261887000001	n/a	10	ITI_onset	n/a	n/a	n/a
163.286047003	1.861860709999979	4.383403369999986	1.861860709999979	11	stim1	n/a	n/a	n/a
165.147907713	0.004814276999997673	2.5215426600000064	n/a	11	choice1	0	n/a	n/a
167.669450373	0.4065373689999979	2.416655144999997	0.4065373689999979	11	stim2	n/a	0	n/a
168.075987742	0.01011777599999914	2.010117775999999	n/a	11	choice2	n/a	0	n/a
170.08610551799998	1.5	n/a	n/a	11	outcome	n/a	n/a	1
171.58610551799998	5.566879849999998	10.45027536000003	n/a	11	ITI_onset	n/a	n/a	n/a
177.15298536799997	2.3559821720000182	4.883395510000031	2.3559821720000182	12	stim1	n/a	n/a	n/a
179.50896754000001	0.010682708999986062	2.527413338000013	n/a	12	choice1	1	n/a	n/a
182.03638087800002	0.6876796289999911	4.699989445999964	0.6876796289999911	12	stim2	n/a	1	n/a
182.72406050700002	0.0123098169999721	4.012309816999972	n/a	12	choice2	n/a	1	n/a
186.73637032399998	1.5	n/a	n/a	12	outcome	n/a	n/a	0
188.23637032399998	4.566911930000031	8.866930826000026	n/a	12	ITI_onset	n/a	n/a	n/a
192.803282254	1.264282188000012	4.300018895999994	1.264282188000012	13	stim1	n/a	n/a	n/a
194.06756444200002	0.018984102999966126	3.035736707999982	n/a	13	choice1	1	n/a	n/a
197.10330115	0.6432831900000164	5.149978650000005	0.6432831900000164	13	stim2	n/a	1	n/a
197.74658434000003	0.006695459999988088	4.506695459999988	n/a	13	choice2	n/a	1	n/a
202.2532798	1.5	n/a	n/a	13	outcome	n/a	n/a	0
203.7532798	3.066837824999995	8.300320127999964	n/a	13	ITI_onset	n/a	n/a	n/a
206.820117625	2.2038305690000124	5.233482302999968	2.2038305690000124	14	stim1	n/a	n/a	n/a
209.023948194	0.01288661899996805	3.0296517339999554	n/a	14	choice1	0	n/a	n/a
212.05359992799998	0.3332161340000166	3.3499565480000166	0.3332161340000166	14	stim2	n/a	0	n/a
212.38681606199998	0.016740413999999874	3.016740414	n/a	14	choice2	n/a	0	n/a
215.40355647599998	1.5	n/a	n/a	14	outcome	n/a	n/a	0
216.90355647599998	5.566903590000002	10.733597149999987	n/a	14	ITI_onset	n/a	n/a	n/a
222.470460066	1.1374607940000132	5.1666935599999855	1.1374607940000132	15	stim1	n/a	n/a	n/a
223.60792086	0.012490747999981977	4.029232765999972	n/a	15	choice1	1	n/a	n/a
227.63715362599996	0.31075421500002265	3.31661911900001	0.31075421500002265	15	stim2	n/a	1	n/a
227.947907841	0.005864903999987291	3.005864903999987	n/a	15	choice2	n/a	1	n/a
230.953772745	1.5	n/a	n/a	15	outcome	n/a	n/a	1
232.453772745	5.566908401000022	9.166980197000026	n/a	15	ITI_onset	n/a	n/a	n/a
238.020681146	1.5768909599999896	3.600071796000004	1.5768909599999896	16	stim1	n/a	n/a	n/a
239.597572106	0.00642823199997656	2.023180836000014	n/a	16	choice1	0	n/a	n/a
241.620752942	0.7658135359999724	3.783316175999993	0.7658135359999724	16	stim2	n/a	1	n/a
242.386566478	0.01750264000002062	3.0175026400000204	n/a	16	choice2	n/a	1	n/a
245.40406911800002	1.5	n/a	n/a	16	outcome	n/a	n/a	0
246.90406911800002	3.5668169730000083	8.70030559599999	n/a	16	ITI_onset	n/a	n/a	n/a
250.47088609100004	2.6026962769999518	5.133488622999983	2.6026962769999518	17	stim1	n/a	n/a	n/a
253.073582368	0.013973817000049167	2.5307923460000312	n/a	17	choice1	0	n/a	n/a
255.604374714	0.2964297610000358	2.8166415739999504	0.2964297610000358	17	stim2	n/a	0	n/a
255.90080447500006	0.0202118129999144	2.5202118129999143	n/a	17	choice2	n/a	0	n/a
258.421016288	1.5	n/a	n/a	17	outcome	n/a	n/a	1
259.921016288	2.5667212140000775	9.883526398000017	n/a	17	ITI_onset	n/a	n/a	n/a
262.4877375020001	1.789177549999964	7.316805183999939	1.789177549999964	18	stim1	n/a	n/a	n/a
264.276915052	0.010918819000013173	5.527627633999975	n/a	18	choice1	1	n/a	n/a
269.804542686	0.5223488350000698	3.5333484959999915	0.5223488350000698	18	stim2	n/a	1	n/a
270.32689152100005	0.010999660999921616	3.0109996609999214	n/a	18	choice2	n/a	1	n/a
273.33789118199996	1.5	n/a	n/a	18	outcome	n/a	n/a	0
274.83789118199996	4.5668086320000585	10.433695348000038	n/a	18	ITI_onset	n/a	n/a	n/a
279.404699814	1.830200112999999	5.866886715999979	1.830200112999999	19	stim1	n/a	n/a	n/a
281.234899927	0.019840644999989308	4.03668660299998	n/a	19	choice1	0	n/a	n/a
285.27158653000004	0.4432669579999638	3.449921675999998	0.4432669579999638	19	stim2	n/a	0	n/a
285.71485348799996	0.006654718000034336	3.0066547180000343	n/a	19	choice2	n/a	0	n/a
288.721508206	1.5	n/a	n/a	19	outcome	n/a	n/a	1
290.221508206	2.0667459159999853	5.9501584279999955	n/a	19	ITI_onset	n/a	n/a	n/a
292.288254122	1.358566874000011	3.88341251200001	1.358566874000011	20	stim1	n/a	n/a	n/a
293.64682099600003	0.008125915999989956	2.524845637999999	n/a	20	choice1	1	n/a	n/a
296.171666634	0.617185943999968	3.6333168339999973	0.617185943999968	20	stim2	n/a	1	n/a
296.788852578	0.016130890000029468	3.0161308900000297	n/a	20	choice2	n/a	1	n/a
299.804983468	1.5	n/a	n/a	20	outcome	n/a	n/a	0
301.304983468	4.566857714999991	11.417016848	n/a	20	ITI_onset	n/a	n/a	n/a
305.871841183	1.3158081300000195	6.850159133000008	1.3158081300000195	21	stim1	n/a	n/a	n/a
307.187649313	0.01751290600001812	5.534351002999989	n/a	21	choice1	0	n/a	n/a
312.722000316	0.25784657800005517	4.766621156000008	0.25784657800005517	21	stim2	n/a	0	n/a
312.97984689400005	0.00877457799995318	4.5087745779999535	n/a	21	choice2	n/a	0	n/a
317.48862147200003	1.5	n/a	n/a	21	outcome	n/a	n/a	1
318.98862147200003	4.600154242000019	11.200342808999995	n/a	21	ITI_onset	n/a	n/a	n/a
323.58877571400006	1.5621443299999809	6.600188566999976	1.5621443299999809	22	stim1	n/a	n/a	n/a
325.15092004400003	0.02150079600000754	5.038044236999995	n/a	22	choice1	1	n/a	n/a
330.18896428100004	0.5610372429999988	3.5835979679999874	0.5610372429999988	22	stim2	n/a	0	n/a
330.750001524	0.02256072499998845	3.0225607249999884	n/a	22	choice2	n/a	0	n/a
333.772562249	1.5	n/a	n/a	22	outcome	n/a	n/a	0
335.272562249	3.566560011000023	12.600034102000006	n/a	22	ITI_onset	n/a	n/a	n/a
338.83912226	1.508188954000012	9.033474090999983	1.508188954000012	23	stim1	n/a	n/a	n/a
340.34731121400006	0.00838736999995308	7.52528513699997	n/a	23	choice1	0	n/a	n/a
347.872596351	0.47126592000003437	5.983278032000002	0.47126592000003437	23	stim2	n/a	0	n/a
348.34386227100003	0.0120121119999676	5.512012111999968	n/a	23	choice2	n/a	0	n/a
353.855874383	1.5	n/a	n/a	23	outcome	n/a	n/a	1
355.355874383	2.0668176150000073	9.616922244000015	n/a	23	ITI_onset	n/a	n/a	n/a
357.422691998	1.0171337170000188	7.550104629000009	1.0171337170000188	24	stim1	n/a	n/a	n/a
358.43982571500004	0.01618350099999225	6.53297091199999	n/a	24	choice1	1	n/a	n/a
364.97279662700004	1.1812034379999967	5.700097716999997	1.1812034379999967	24	stim2	n/a	1	n/a
366.15400006500005	0.018894279000000097	4.518894279	n/a	24	choice2	n/a	1	n/a
370.67289434400004	1.5	n/a	n/a	24	outcome	n/a	n/a	1
372.17289434400004	5.566811679999985	10.383673806000035	n/a	24	ITI_onset	n/a	n/a	n/a
377.739706024	2.280855784000014	4.816862126000051	2.280855784000014	25	stim1	n/a	n/a	n/a
380.020561808	0.019175301000010223	2.536006342000037	n/a	25	choice1	1	n/a	n/a
382.55656815000003	0.6274423059999826	6.150106008999923	0.6274423059999826	25	stim2	n/a	1	n/a
383.18401045600007	0.022663702999940142	5.522663702999941	n/a	25	choice2	n/a	1	n/a
388.706674159	1.5	n/a	n/a	25	outcome	n/a	n/a	0
390.206674159	1.0	1.0	n/a	25	ITI_onset	n/a	n/a	n/a
