onset	duration	duration2fb	response_time	trial	event	choice1	state	reward
0.0	0.3654737000000023	2.4000246000000005	0.3654737000000023	1	stim1	n/a	n/a	n/a
0.36547370000000257	0.01812699999999677	2.0345508999999984	n/a	1	choice1	0	n/a	n/a
2.400024600000002	0.5419189000000005	3.0500301	0.5419189000000005	1	stim2	n/a	0	n/a
2.9419435000000007	0.008111199999999371	2.508111199999999	n/a	1	choice2	n/a	0	n/a
5.450054700000003	1.5	n/a	n/a	1	outcome	n/a	n/a	0
6.950054700000003	3.566751100000001	6.650140300000003	n/a	1	ITI_onset	n/a	n/a	n/a
10.516805800000004	0.5571332999999977	3.0833892000000014	0.5571332999999977	2	stim1	n/a	n/a	n/a
11.0739391	0.009540500000002793	2.5262559000000038	n/a	2	choice1	1	n/a	n/a
13.600195000000003	1.2331787999999941	3.2500007999999942	1.2331787999999941	2	stim2	n/a	0	n/a
14.8333738	0.016822000000000118	2.0168220000000003	n/a	2	choice2	n/a	0	n/a
16.850195799999998	1.5	n/a	n/a	2	outcome	n/a	n/a	1
18.350195799999998	2.0667767000000024	5.933470500000003	n/a	2	ITI_onset	n/a	n/a	n/a
20.416972500000004	0.3364529000000039	3.866693800000001	0.3364529000000039	3	stim1	n/a	n/a	n/a
20.7534254	0.013526599999997415	3.5302408999999972	n/a	3	choice1	1	n/a	n/a
24.283666300000004	0.4688133000000016	2.9833444999999994	0.4688133000000016	3	stim2	n/a	1	n/a
24.752479600000004	0.014531199999997624	2.5145311999999977	n/a	3	choice2	n/a	1	n/a
27.267010799999998	1.5	n/a	n/a	3	outcome	n/a	n/a	0
28.767010799999998	4.566792800000003	7.4668256000000035	n/a	3	ITI_onset	n/a	n/a	n/a
33.33380360000001	0.3653912999999957	2.900032800000001	0.3653912999999957	4	stim1	n/a	n/a	n/a
33.699194899999995	0.01793760000000475	2.534641500000005	n/a	4	choice1	0	n/a	n/a
36.2338364	0.6553057999999946	2.666644899999999	0.6553057999999946	4	stim2	n/a	0	n/a
36.889142199999995	0.011339100000004692	2.0113391000000047	n/a	4	choice2	n/a	0	n/a
38.90048130000001	1.5	n/a	n/a	4	outcome	n/a	n/a	0
40.40048130000001	5.066834999999999	9.600200399999995	n/a	4	ITI_onset	n/a	n/a	n/a
45.46731630000001	0.5110047999999952	4.533365399999995	0.5110047999999952	5	stim1	n/a	n/a	n/a
45.9783211	0.005676800000001095	4.0223606	n/a	5	choice1	1	n/a	n/a
50.0006817	0.525184300000008	8.033362300000007	0.525184300000008	5	stim2	n/a	0	n/a
50.52586600000001	0.008177999999999883	7.508178	n/a	5	choice2	n/a	0	n/a
58.03404400000001	1.5	n/a	n/a	5	outcome	n/a	n/a	1
59.53404400000001	4.066853900000002	7.250233899999992	n/a	5	ITI_onset	n/a	n/a	n/a
63.60089790000001	0.6479331999999995	3.18337999999999	0.6479331999999995	6	stim1	n/a	n/a	n/a
64.2488311	0.018728999999992085	2.5354467999999906	n/a	6	choice1	0	n/a	n/a
66.7842779	0.43496020000000135	2.4500329000000054	0.43496020000000135	6	stim2	n/a	0	n/a
67.2192381	0.01507270000000426	2.015072700000004	n/a	6	choice2	n/a	0	n/a
69.2343108	1.5	n/a	n/a	6	outcome	n/a	n/a	0
70.7343108	4.066821400000001	6.466789099999994	n/a	6	ITI_onset	n/a	n/a	n/a
74.80113220000001	0.3787448000000004	2.3999676999999937	0.3787448000000004	7	stim1	n/a	n/a	n/a
75.179877	0.004508099999991828	2.0212228999999935	n/a	7	choice1	1	n/a	n/a
77.2010999	0.7487459999999991	3.7666826	0.7487459999999991	7	stim2	n/a	1	n/a
77.9498459	0.01793660000000091	3.017936600000001	n/a	7	choice2	n/a	1	n/a
80.9677825	1.5	n/a	n/a	7	outcome	n/a	n/a	1
82.4677825	5.56681240000001	11.950269100000005	n/a	7	ITI_onset	n/a	n/a	n/a
88.03459490000002	0.3486942999999883	6.3834566999999955	0.3486942999999883	8	stim1	n/a	n/a	n/a
88.3832892	0.01795330000000831	6.034762400000007	n/a	8	choice1	1	n/a	n/a
94.41805160000001	0.4073368000000046	3.416622399999993	0.4073368000000046	8	stim2	n/a	1	n/a
94.82538840000001	0.009285599999988335	3.009285599999988	n/a	8	choice2	n/a	1	n/a
97.83467399999999	1.5	n/a	n/a	8	outcome	n/a	n/a	1
99.33467399999999	3.066773700000005	5.433472999999998	n/a	8	ITI_onset	n/a	n/a	n/a
102.4014477	0.33976350000000094	2.366699299999993	0.33976350000000094	9	stim1	n/a	n/a	n/a
102.74121120000001	0.010242899999997461	2.026935799999992	n/a	9	choice1	1	n/a	n/a
104.768147	0.6435808000000106	8.150032699999995	0.6435808000000106	9	stim2	n/a	0	n/a
105.41172780000001	0.006451900000000023	7.506451899999986	n/a	9	choice2	n/a	0	n/a
112.91817969999998	1.5	n/a	n/a	9	outcome	n/a	n/a	0
114.41817969999998	7.566877900000021	9.883582500000019	n/a	9	ITI_onset	n/a	n/a	n/a
121.98505760000002	0.29015239999999176	2.3167045999999973	0.29015239999999176	10	stim1	n/a	n/a	n/a
122.27521	0.009863699999987147	2.0265522000000056	n/a	10	choice1	1	n/a	n/a
124.3017622	0.6349903000000049	4.149997899999987	0.6349903000000049	10	stim2	n/a	1	n/a
124.93675250000003	0.015007599999982631	3.515007599999983	n/a	10	choice2	n/a	1	n/a
128.45176009999997	1.5	n/a	n/a	10	outcome	n/a	n/a	1
129.95176009999997	7.066836100000015	12.083565300000016	n/a	10	ITI_onset	n/a	n/a	n/a
137.0185962	0.49020389999999314	5.016729200000001	0.49020389999999314	11	stim1	n/a	n/a	n/a
137.5088001	0.009807700000004842	4.526525300000008	n/a	11	choice1	1	n/a	n/a
142.0353254	0.30504349999999975	6.316672999999981	0.30504349999999975	11	stim2	n/a	1	n/a
142.34036890000002	0.011629499999980909	6.011629499999981	n/a	11	choice2	n/a	1	n/a
148.35199839999999	1.5	n/a	n/a	11	outcome	n/a	n/a	1
149.85199839999999	6.566915399999998	12.750292000000016	n/a	11	ITI_onset	n/a	n/a	n/a
156.41891379999998	0.6623887000000104	6.183376600000018	0.6623887000000104	12	stim1	n/a	n/a	n/a
157.0813025	0.004286900000006426	5.520987900000008	n/a	12	choice1	1	n/a	n/a
162.6022904	0.3763677000000025	2.883288499999995	0.3763677000000025	12	stim2	n/a	1	n/a
162.9786581	0.006920799999992596	2.5069207999999925	n/a	12	choice2	n/a	1	n/a
165.4855789	1.5	n/a	n/a	12	outcome	n/a	n/a	1
166.9855789	2.5668494000000064	6.666935200000007	n/a	12	ITI_onset	n/a	n/a	n/a
169.5524283	0.5663545999999915	4.1000858000000004	0.5663545999999915	13	stim1	n/a	n/a	n/a
170.11878289999999	0.016956700000009733	3.5337312000000094	n/a	13	choice1	1	n/a	n/a
173.6525141	0.5511385999999766	5.566618599999987	0.5511385999999766	13	stim2	n/a	1	n/a
174.20365269999996	0.015480000000010477	5.015480000000011	n/a	13	choice2	n/a	1	n/a
179.2191327	1.5	n/a	n/a	13	outcome	n/a	n/a	1
180.7191327	2.5668550000000105	7.216872399999993	n/a	13	ITI_onset	n/a	n/a	n/a
183.2859877	0.6259854999999807	4.6500173999999825	0.6259854999999807	14	stim1	n/a	n/a	n/a
183.91197319999998	0.007291700000001583	4.0240319000000015	n/a	14	choice1	1	n/a	n/a
187.9360051	0.38304060000000756	3.3999947000000104	0.38304060000000756	14	stim2	n/a	1	n/a
188.31904569999998	0.016954100000002654	3.0169541000000026	n/a	14	choice2	n/a	1	n/a
191.3359998	1.5	n/a	n/a	14	outcome	n/a	n/a	1
192.8359998	3.5667897999999987	7.7335016999999935	n/a	14	ITI_onset	n/a	n/a	n/a
196.40278959999998	0.6433788000000059	4.166711899999995	0.6433788000000059	15	stim1	n/a	n/a	n/a
197.0461684	0.006634200000000419	3.523333099999989	n/a	15	choice1	1	n/a	n/a
200.56950149999997	1.2001560000000173	6.216679300000018	1.2001560000000173	15	stim2	n/a	0	n/a
201.7696575	0.016523300000000744	5.016523300000001	n/a	15	choice2	n/a	0	n/a
206.7861808	1.5	n/a	n/a	15	outcome	n/a	n/a	0
208.2861808	4.566857599999988	6.900428399999975	n/a	15	ITI_onset	n/a	n/a	n/a
212.8530384	0.31118109999998705	2.3335707999999866	0.31118109999998705	16	stim1	n/a	n/a	n/a
213.16421949999997	0.005471600000018953	2.0223896999999997	n/a	16	choice1	1	n/a	n/a
215.18660919999996	0.48446199999999956	2.4997528000000164	0.48446199999999956	16	stim2	n/a	1	n/a
215.67107119999997	0.015290800000017044	2.015290800000017	n/a	16	choice2	n/a	1	n/a
217.686362	1.5	n/a	n/a	16	outcome	n/a	n/a	1
219.186362	3.1002045999999974	6.583494999999996	n/a	16	ITI_onset	n/a	n/a	n/a
222.2865666	0.4616704000000027	3.4832903999999982	0.4616704000000027	17	stim1	n/a	n/a	n/a
222.748237	0.004903800000000047	3.0216199999999955	n/a	17	choice1	1	n/a	n/a
225.769857	0.5801178000000072	4.6000742000000026	0.5801178000000072	17	stim2	n/a	1	n/a
226.34997479999998	0.019956399999995482	4.019956399999995	n/a	17	choice2	n/a	1	n/a
230.3699312	1.5	n/a	n/a	17	outcome	n/a	n/a	1
231.8699312	2.5667195000000067	10.516843200000004	n/a	17	ITI_onset	n/a	n/a	n/a
234.4366507	0.9174946999999811	7.950123699999996	0.9174946999999811	18	stim1	n/a	n/a	n/a
235.3541454	0.015881200000003447	7.032629000000015	n/a	18	choice1	1	n/a	n/a
242.38677439999998	0.4518231999999843	4.466656799999997	0.4518231999999843	18	stim2	n/a	0	n/a
242.83859759999996	0.014833600000012666	4.014833600000013	n/a	18	choice2	n/a	0	n/a
246.8534312	1.5	n/a	n/a	18	outcome	n/a	n/a	1
248.3534312	4.0668190000000175	10.916905299999984	n/a	18	ITI_onset	n/a	n/a	n/a
252.4202502	0.32067989999998825	6.850086299999966	0.32067989999998825	19	stim1	n/a	n/a	n/a
252.7409301	0.012662799999990966	6.529406399999978	n/a	19	choice1	0	n/a	n/a
259.2703365	0.5192741999999853	6.033345499999996	0.5192741999999853	19	stim2	n/a	0	n/a
259.78961069999997	0.014071300000010525	5.51407130000001	n/a	19	choice2	n/a	0	n/a
265.303682	1.5	n/a	n/a	19	outcome	n/a	n/a	1
266.803682	4.5668381999999985	9.416861200000042	n/a	19	ITI_onset	n/a	n/a	n/a
271.3705202	0.32160820000001694	4.850023000000045	0.32160820000001694	20	stim1	n/a	n/a	n/a
271.6921284	0.011717200000013691	4.528414800000028	n/a	20	choice1	0	n/a	n/a
276.2205432	0.33851519999996527	3.850045199999993	0.33851519999996527	20	stim2	n/a	0	n/a
276.55905839999997	0.01153000000002794	3.511530000000028	n/a	20	choice2	n/a	0	n/a
280.0705884	1.5	n/a	n/a	20	outcome	n/a	n/a	1
281.5705884	5.566873900000006	9.450204700000002	n/a	20	ITI_onset	n/a	n/a	n/a
287.13746230000004	0.34904899999999905	3.883330799999996	0.34904899999999905	21	stim1	n/a	n/a	n/a
287.4865113	0.01757839999999851	3.534281799999997	n/a	21	choice1	0	n/a	n/a
291.0207931	0.44503129999997326	6.449990699999966	0.44503129999997326	21	stim2	n/a	0	n/a
291.4658244	0.004959399999992457	6.004959399999993	n/a	21	choice2	n/a	0	n/a
297.4707838	1.5	n/a	n/a	21	outcome	n/a	n/a	1
298.9707838	2.066837200000009	5.25022020000004	n/a	21	ITI_onset	n/a	n/a	n/a
301.037621	0.6523794999999809	3.1833830000000307	0.6523794999999809	22	stim1	n/a	n/a	n/a
301.69000049999994	0.014290200000046752	2.53100350000005	n/a	22	choice1	0	n/a	n/a
304.221004	0.32345209999999497	2.333323199999984	0.32345209999999497	22	stim2	n/a	0	n/a
304.5444561	0.009871099999989382	2.0098710999999896	n/a	22	choice2	n/a	0	n/a
306.5543272	1.5	n/a	n/a	22	outcome	n/a	n/a	1
308.0543272	3.5667579999999726	6.950170799999963	n/a	22	ITI_onset	n/a	n/a	n/a
311.6210852	0.35485860000003594	3.383412799999991	0.35485860000003594	23	stim1	n/a	n/a	n/a
311.9759438	0.011805799999972805	3.028554199999955	n/a	23	choice1	0	n/a	n/a
315.00449799999996	0.6393229000000283	5.1500270000000015	0.6393229000000283	23	stim2	n/a	0	n/a
315.6438209	0.01070409999997355	4.510704099999973	n/a	23	choice2	n/a	0	n/a
320.154525	1.5	n/a	n/a	23	outcome	n/a	n/a	1
321.654525	5.066748200000031	8.400157800000045	n/a	23	ITI_onset	n/a	n/a	n/a
326.7212732	0.3097050000000163	3.3334096000000137	0.3097050000000163	24	stim1	n/a	n/a	n/a
327.0309782	0.0069940000000060535	3.023704599999997	n/a	24	choice1	0	n/a	n/a
330.0546828	0.3881621999999625	2.8999508999999963	0.3881621999999625	24	stim2	n/a	0	n/a
330.442845	0.011788700000033714	2.5117887000000336	n/a	24	choice2	n/a	0	n/a
332.9546337	1.5	n/a	n/a	24	outcome	n/a	n/a	0
334.4546337	4.066813599999994	10.500250899999985	n/a	24	ITI_onset	n/a	n/a	n/a
338.5214473	0.899555400000012	6.433437299999991	0.899555400000012	25	stim1	n/a	n/a	n/a
339.42100270000003	0.017164999999979044	5.533881899999979	n/a	25	choice1	1	n/a	n/a
344.9548846	0.27036650000000373	7.78338890000002	0.27036650000000373	25	stim2	n/a	1	n/a
345.2252511	0.013022400000016206	7.5130224000000165	n/a	25	choice2	n/a	1	n/a
352.7382735	1.5	n/a	n/a	25	outcome	n/a	n/a	0
354.2382735	1.0	1.0	n/a	25	ITI_onset	n/a	n/a	n/a
