onset	duration	duration2fb	response_time	trial	event	choice1	state	reward
0.0	0.3255152000000016	6.866758000000005	0.3255152000000016	1	stim1	n/a	n/a	n/a
0.32551520000000167	0.024786299999999754	6.541242800000004	n/a	1	choice1	0	n/a	n/a
6.866758000000001	0.541163999999997	2.5500041999999956	0.541163999999997	1	stim2	n/a	1	n/a
7.407922000000003	0.008840199999998731	2.0088401999999985	n/a	1	choice2	n/a	1	n/a
9.416762199999997	1.5	n/a	n/a	1	outcome	n/a	n/a	1
10.916762199999997	2.5667491999999985	5.933474699999999	n/a	1	ITI_onset	n/a	n/a	n/a
13.483511400000001	0.34196110000000046	3.3667255000000003	0.34196110000000046	2	stim1	n/a	n/a	n/a
13.8254725	0.008071300000003247	3.0247644	n/a	2	choice1	0	n/a	n/a
16.850236899999995	0.2748081999999995	2.7833389000000026	0.2748081999999995	2	stim2	n/a	1	n/a
17.125045099999998	0.00853070000000298	2.5085307000000028	n/a	2	choice2	n/a	1	n/a
19.6335758	1.5	n/a	n/a	2	outcome	n/a	n/a	1
21.1335758	5.066820399999997	9.950189400000003	n/a	2	ITI_onset	n/a	n/a	n/a
26.200396199999997	0.35255600000000414	4.883369000000006	0.35255600000000414	3	stim1	n/a	n/a	n/a
26.552952200000004	0.014101900000001479	4.530813000000002	n/a	3	choice1	0	n/a	n/a
31.083765200000006	4.748335500000001	6.766744699999996	4.748335500000001	3	stim2	n/a	1	n/a
35.83210070000001	0.0184091999999946	2.0184091999999945	n/a	3	choice2	n/a	1	n/a
37.850509900000006	1.5	n/a	n/a	3	outcome	n/a	n/a	1
39.350509900000006	4.066763000000006	22.833722299999994	n/a	3	ITI_onset	n/a	n/a	n/a
43.417272900000015	14.729125	18.76695929999999	14.729125	4	stim1	n/a	n/a	n/a
58.14639790000001	0.021059899999992922	4.037834299999988	n/a	4	choice1	0	n/a	n/a
62.1842322	0.25057410000001257	5.7666201	0.25057410000001257	4	stim2	n/a	1	n/a
62.434806300000005	0.016045999999987542	5.516045999999988	n/a	4	choice2	n/a	1	n/a
67.9508523	1.5	n/a	n/a	4	outcome	n/a	n/a	1
69.4508523	7.066877200000002	14.41698640000001	n/a	4	ITI_onset	n/a	n/a	n/a
76.5177295	0.31266820000000006	7.350109200000007	0.31266820000000006	5	stim1	n/a	n/a	n/a
76.8303977	0.02070470000000205	7.0374410000000065	n/a	5	choice1	0	n/a	n/a
83.86783870000001	0.0041533999999956	2.0166854000000023	0.0041533999999956	5	stim2	n/a	1	n/a
83.8719921	0.012532000000006519	2.0125320000000064	n/a	5	choice2	n/a	1	n/a
85.88452410000001	1.5	n/a	n/a	5	outcome	n/a	n/a	1
87.38452410000001	2.566761599999998	9.050191399999996	n/a	5	ITI_onset	n/a	n/a	n/a
89.9512857	3.460714599999992	6.483429799999998	3.460714599999992	6	stim1	n/a	n/a	n/a
93.4120003	0.006026700000002165	3.022715200000006	n/a	6	choice1	0	n/a	n/a
96.43471550000001	1.7557163	7.266671899999986	1.7557163	6	stim2	n/a	0	n/a
98.19043180000001	0.01095560000000114	5.510955599999987	n/a	6	choice2	n/a	0	n/a
103.7013874	1.5	n/a	n/a	6	outcome	n/a	n/a	1
105.2013874	2.0668143000000274	6.350248900000006	n/a	6	ITI_onset	n/a	n/a	n/a
107.2682017	0.7546574999999721	4.283434599999978	0.7546574999999721	7	stim1	n/a	n/a	n/a
108.02285919999998	0.012018400000000838	3.5287771000000068	n/a	7	choice1	1	n/a	n/a
111.5516363	2.17219650000002	5.183319600000017	2.17219650000002	7	stim2	n/a	0	n/a
113.72383280000001	0.011123099999997067	3.011123099999997	n/a	7	choice2	n/a	0	n/a
116.7349559	1.5	n/a	n/a	7	outcome	n/a	n/a	0
118.2349559	3.066782799999986	13.000267999999982	n/a	7	ITI_onset	n/a	n/a	n/a
121.3017387	3.3986039000000163	9.933485199999996	3.3986039000000163	8	stim1	n/a	n/a	n/a
124.70034260000001	0.01811259999999311	6.534881299999979	n/a	8	choice1	1	n/a	n/a
131.2352239	7.0301281000000015	10.050056700000015	7.0301281000000015	8	stim2	n/a	0	n/a
138.26535199999998	0.01992860000001383	3.019928600000014	n/a	8	choice2	n/a	0	n/a
141.2852806	1.5	n/a	n/a	8	outcome	n/a	n/a	0
142.7852806	6.066842399999994	9.800272800000005	n/a	8	ITI_onset	n/a	n/a	n/a
148.85212299999998	0.20924379999999657	3.733430400000012	0.20924379999999657	9	stim1	n/a	n/a	n/a
149.0613668	0.007432499999995343	3.5241866000000153	n/a	9	choice1	0	n/a	n/a
152.5855534	0.3111828999999852	4.316646299999993	0.3111828999999852	9	stim2	n/a	1	n/a
152.8967363	0.005463400000007823	4.005463400000008	n/a	9	choice2	n/a	1	n/a
156.90219969999998	1.5	n/a	n/a	9	outcome	n/a	n/a	0
158.40219969999998	2.5667759000000077	5.866833299999999	n/a	9	ITI_onset	n/a	n/a	n/a
160.9689756	0.27907639999999084	3.3000573999999907	0.27907639999999084	10	stim1	n/a	n/a	n/a
161.248052	0.004259499999985565	3.020981	n/a	10	choice1	1	n/a	n/a
164.269033	1.5966564999999828	7.616702499999985	1.5966564999999828	10	stim2	n/a	1	n/a
165.86568949999997	0.020046000000002097	6.0200460000000025	n/a	10	choice2	n/a	1	n/a
171.88573549999998	1.5	n/a	n/a	10	outcome	n/a	n/a	0
173.38573549999998	3.0668197999999975	5.9668597000000005	n/a	10	ITI_onset	n/a	n/a	n/a
176.45255529999997	0.3762299000000057	2.9000399000000034	0.3762299000000057	11	stim1	n/a	n/a	n/a
176.82878519999997	0.007086000000010245	2.523809999999998	n/a	11	choice1	1	n/a	n/a
179.35259519999997	16.18801740000001	18.200231	16.18801740000001	11	stim2	n/a	0	n/a
195.5406126	0.01221359999998822	2.0122135999999884	n/a	11	choice2	n/a	0	n/a
197.55282619999997	1.5	n/a	n/a	11	outcome	n/a	n/a	0
199.05282619999997	8.066863600000012	13.750228100000008	n/a	11	ITI_onset	n/a	n/a	n/a
207.1196898	0.6485603999999876	5.683364499999996	0.6485603999999876	12	stim1	n/a	n/a	n/a
207.76825019999998	0.018071200000005776	5.0348041000000086	n/a	12	choice1	1	n/a	n/a
212.80305429999999	0.7707250000000058	4.283361999999994	0.7707250000000058	12	stim2	n/a	1	n/a
213.57377929999998	0.012636999999987892	3.512636999999988	n/a	12	choice2	n/a	1	n/a
217.08641629999997	1.5	n/a	n/a	12	outcome	n/a	n/a	1
218.58641629999997	2.566787100000016	10.48353820000001	n/a	12	ITI_onset	n/a	n/a	n/a
221.1532034	4.885003100000001	7.916751099999994	4.885003100000001	13	stim1	n/a	n/a	n/a
226.0382065	0.015043600000004516	3.0317479999999923	n/a	13	choice1	0	n/a	n/a
229.0699545	19.838649999999994	24.850281300000002	19.838649999999994	13	stim2	n/a	0	n/a
248.90860449999997	0.011631300000008195	5.011631300000008	n/a	13	choice2	n/a	0	n/a
253.9202358	1.5	n/a	n/a	13	outcome	n/a	n/a	0
255.4202358	2.5668157999999823	10.433587699999974	n/a	13	ITI_onset	n/a	n/a	n/a
257.9870516	0.34548029999999563	7.866771899999993	0.34548029999999563	14	stim1	n/a	n/a	n/a
258.3325319	0.004518500000005588	7.521291599999997	n/a	14	choice1	0	n/a	n/a
265.8538235	0.2623180000000284	3.2833265000000247	0.2623180000000284	14	stim2	n/a	1	n/a
266.11614149999997	0.021008499999996273	3.021008499999996	n/a	14	choice2	n/a	1	n/a
269.13715	1.5	n/a	n/a	14	outcome	n/a	n/a	1
270.63715	2.5669016999999874	7.450195499999973	n/a	14	ITI_onset	n/a	n/a	n/a
273.2040517	2.349656400000036	4.883293799999985	2.349656400000036	15	stim1	n/a	n/a	n/a
275.5537081	0.016901999999943657	2.533637399999949	n/a	15	choice1	0	n/a	n/a
278.08734549999997	1.9222540000000155	3.933349400000006	1.9222540000000155	15	stim2	n/a	1	n/a
280.0095995	0.01109539999999106	2.011095399999991	n/a	15	choice2	n/a	1	n/a
282.02069489999997	1.5	n/a	n/a	15	outcome	n/a	n/a	0
283.52069489999997	6.0668433000000075	10.950222999999998	n/a	15	ITI_onset	n/a	n/a	n/a
289.5875382	0.3621036000000313	4.88337969999999	0.3621036000000313	16	stim1	n/a	n/a	n/a
289.9496418	0.004508199999982025	4.521276099999959	n/a	16	choice1	1	n/a	n/a
294.47091789999996	0.40586389999999667	2.416698000000033	0.40586389999999667	16	stim2	n/a	0	n/a
294.87678179999995	0.010834100000036415	2.0108341000000363	n/a	16	choice2	n/a	0	n/a
296.8876159	1.5	n/a	n/a	16	outcome	n/a	n/a	1
298.3876159	7.066807299999986	17.450402699999977	n/a	16	ITI_onset	n/a	n/a	n/a
305.4544232	4.360035199999984	10.383595399999992	4.360035199999984	17	stim1	n/a	n/a	n/a
309.8144584	0.006669600000022911	6.0235602000000075	n/a	17	choice1	0	n/a	n/a
315.8380186	7.942459199999983	9.94996880000003	7.942459199999983	17	stim2	n/a	0	n/a
323.78047779999997	0.007509600000048522	2.0075096000000485	n/a	17	choice2	n/a	0	n/a
325.7879874	1.5	n/a	n/a	17	outcome	n/a	n/a	0
327.2879874	4.566826599999971	21.31713579999999	n/a	17	ITI_onset	n/a	n/a	n/a
331.854814	11.717893900000025	16.750309200000018	11.717893900000025	18	stim1	n/a	n/a	n/a
343.5727079	0.015575499999977182	5.032415299999993	n/a	18	choice1	0	n/a	n/a
348.6051232	0.42225870000000576	2.433238399999973	0.42225870000000576	18	stim2	n/a	1	n/a
349.0273819	0.010979699999967124	2.010979699999967	n/a	18	choice2	n/a	1	n/a
351.0383616	1.5	n/a	n/a	18	outcome	n/a	n/a	0
352.5383616	2.566762300000002	28.45047000000003	n/a	18	ITI_onset	n/a	n/a	n/a
355.10512389999997	21.847451600000028	25.883707700000027	21.847451600000028	19	stim1	n/a	n/a	n/a
376.9525755	0.01951989999995567	4.036256099999998	n/a	19	choice1	0	n/a	n/a
380.9888316	0.402507799999963	2.416637400000007	0.402507799999963	19	stim2	n/a	1	n/a
381.3913394	0.014129600000043865	2.014129600000044	n/a	19	choice2	n/a	1	n/a
383.40546900000004	1.5	n/a	n/a	19	outcome	n/a	n/a	1
384.90546900000004	4.60017439999996	8.333539699999966	n/a	19	ITI_onset	n/a	n/a	n/a
389.5056434	0.2063353000000352	3.733365300000005	0.2063353000000352	20	stim1	n/a	n/a	n/a
389.71197870000003	0.010276899999997114	3.5270299999999697	n/a	20	choice1	0	n/a	n/a
393.2390087	0.28449270000000254	3.3000185000000055	0.28449270000000254	20	stim2	n/a	1	n/a
393.5235014	0.015525800000003073	3.015525800000003	n/a	20	choice2	n/a	1	n/a
396.53902719999996	1.5	n/a	n/a	20	outcome	n/a	n/a	1
398.03902719999996	3.066755200000014	5.883450000000011	n/a	20	ITI_onset	n/a	n/a	n/a
401.1057824	0.28529570000001697	2.8166947999999974	0.28529570000001697	21	stim1	n/a	n/a	n/a
401.3910781	0.014714899999962654	2.5313990999999807	n/a	21	choice1	0	n/a	n/a
403.9224772	0.2814758000000147	5.800023099999991	0.2814758000000147	21	stim2	n/a	1	n/a
404.203953	0.018547299999976532	5.518547299999977	n/a	21	choice2	n/a	1	n/a
409.7225003	1.5	n/a	n/a	21	outcome	n/a	n/a	0
411.2225003	4.066831600000034	25.283810600000027	n/a	21	ITI_onset	n/a	n/a	n/a
415.28933190000004	18.68253409999999	21.21697899999999	18.68253409999999	22	stim1	n/a	n/a	n/a
433.97186600000003	0.017728899999987335	2.534444900000002	n/a	22	choice1	0	n/a	n/a
436.5063109	0.6410279999999912	2.6500402999999935	0.6410279999999912	22	stim2	n/a	1	n/a
437.1473389	0.009012300000002142	2.009012300000002	n/a	22	choice2	n/a	1	n/a
439.1563512	1.5	n/a	n/a	22	outcome	n/a	n/a	0
440.6563512	3.066699099999969	5.983424999999988	n/a	22	ITI_onset	n/a	n/a	n/a
443.72305029999995	0.380438300000038	2.9167259000000194	0.380438300000038	23	stim1	n/a	n/a	n/a
444.1034886	0.019601099999970756	2.5362875999999814	n/a	23	choice1	1	n/a	n/a
446.6397762	0.25572100000001957	2.266651599999983	0.25572100000001957	23	stim2	n/a	0	n/a
446.8954972	0.010930599999963306	2.010930599999963	n/a	23	choice2	n/a	0	n/a
448.90642779999996	1.5	n/a	n/a	23	outcome	n/a	n/a	1
450.40642779999996	7.06683189999999	22.917102200000024	n/a	23	ITI_onset	n/a	n/a	n/a
457.47325969999997	9.315653300000005	15.850270300000032	9.315653300000005	24	stim1	n/a	n/a	n/a
466.788913	0.01779110000003129	6.534617000000027	n/a	24	choice1	0	n/a	n/a
473.32353	0.1969016999999876	7.216649199999985	0.1969016999999876	24	stim2	n/a	1	n/a
473.52043169999996	0.019747499999997673	7.019747499999998	n/a	24	choice2	n/a	1	n/a
480.5401792	1.5	n/a	n/a	24	outcome	n/a	n/a	0
482.0401792	5.5668505	10.91691519999999	n/a	24	ITI_onset	n/a	n/a	n/a
487.6070297	0.3262628000000259	5.350064699999988	0.3262628000000259	25	stim1	n/a	n/a	n/a
487.9332925	0.0070922999999602325	5.023801899999962	n/a	25	choice1	0	n/a	n/a
492.95709439999996	2.0491508000000613	8.066703399999998	2.0491508000000613	25	stim2	n/a	1	n/a
495.0062452000001	0.01755259999993723	6.017552599999937	n/a	25	choice2	n/a	1	n/a
501.0237978	1.5	n/a	n/a	25	outcome	n/a	n/a	0
502.5237978	1.0	1.0	n/a	25	ITI_onset	n/a	n/a	n/a
