onset	duration	duration2fb	response_time	trial	event	choice1	state	reward
0.0	0.3445540000000001	4.3833917	0.3445540000000001	1	stim1	n/a	n/a	n/a
0.3445539999999987	0.02239140000000043	4.0388377	n/a	1	choice1	1	n/a	n/a
4.383391699999997	0.7102697000000043	2.716636899999998	0.7102697000000043	1	stim2	n/a	1	n/a
5.093661400000002	0.006367199999993318	2.0063671999999935	n/a	1	choice2	n/a	1	n/a
7.100028600000002	1.5	n/a	n/a	1	outcome	n/a	n/a	0
8.600028600000002	3.5668251000000017	6.950242100000003	n/a	1	ITI_onset	n/a	n/a	n/a
12.166853699999997	0.35373530000000025	3.3834170000000015	0.35373530000000025	2	stim1	n/a	n/a	n/a
12.520589000000001	0.0129403999999995	3.029681700000001	n/a	2	choice1	0	n/a	n/a
15.550270699999999	0.4122434999999969	4.916636200000001	0.4122434999999969	2	stim2	n/a	0	n/a
15.962514200000001	0.00439270000000397	4.504392700000004	n/a	2	choice2	n/a	0	n/a
20.466906900000005	1.5	n/a	n/a	2	outcome	n/a	n/a	0
21.966906900000005	8.5669153	11.816966200000003	n/a	2	ITI_onset	n/a	n/a	n/a
30.533822200000003	0.22585639999999693	3.250050900000002	0.22585639999999693	3	stim1	n/a	n/a	n/a
30.7596786	0.00747950000000128	3.024194500000005	n/a	3	choice1	0	n/a	n/a
33.78387310000001	0.5196556999999957	5.533328499999996	0.5196556999999957	3	stim2	n/a	1	n/a
34.3035288	0.01367280000000028	5.0136728	n/a	3	choice2	n/a	1	n/a
39.317201600000004	1.5	n/a	n/a	3	outcome	n/a	n/a	1
40.817201600000004	5.066862600000007	13.250365799999999	n/a	3	ITI_onset	n/a	n/a	n/a
45.88406420000001	0.6515026999999973	8.183503199999992	0.6515026999999973	4	stim1	n/a	n/a	n/a
46.535566900000006	0.015182099999990897	7.532000499999994	n/a	4	choice1	0	n/a	n/a
54.0675674	0.5129441999999981	5.033335999999996	0.5129441999999981	4	stim2	n/a	0	n/a
54.580511599999994	0.0203917999999976	4.520391799999998	n/a	4	choice2	n/a	0	n/a
59.10090339999999	1.5	n/a	n/a	4	outcome	n/a	n/a	0
60.60090339999999	3.0667943999999987	10.300236300000003	n/a	4	ITI_onset	n/a	n/a	n/a
63.6676978	0.7038888000000006	7.233441900000005	0.7038888000000006	5	stim1	n/a	n/a	n/a
64.3715866	0.01279100000001199	6.529553100000005	n/a	5	choice1	0	n/a	n/a
70.9011397	0.2664426999999996	5.2833657999999994	0.2664426999999996	5	stim2	n/a	1	n/a
71.1675824	0.016923099999999976	5.0169231	n/a	5	choice2	n/a	1	n/a
76.1845055	1.5	n/a	n/a	5	outcome	n/a	n/a	1
77.6845055	4.566784800000009	8.366907099999997	n/a	5	ITI_onset	n/a	n/a	n/a
82.25129030000001	0.26529539999998814	3.800122299999988	0.26529539999998814	6	stim1	n/a	n/a	n/a
82.5165857	0.01806510000000708	3.5348269	n/a	6	choice1	1	n/a	n/a
86.05141259999999	0.43671900000001185	7.44998490000001	0.43671900000001185	6	stim2	n/a	0	n/a
86.4881316	0.01326589999999851	7.013265899999999	n/a	6	choice2	n/a	0	n/a
93.50139750000001	1.5	n/a	n/a	6	outcome	n/a	n/a	0
95.00139750000001	4.066898300000001	9.400323199999999	n/a	6	ITI_onset	n/a	n/a	n/a
99.0682958	0.31127469999999446	5.333424899999998	0.31127469999999446	7	stim1	n/a	n/a	n/a
99.3795705	0.005350900000004912	5.022150200000004	n/a	7	choice1	0	n/a	n/a
104.40172070000001	0.8249588999999978	8.833298299999996	0.8249588999999978	7	stim2	n/a	1	n/a
105.2266796	0.008339399999997114	8.008339399999997	n/a	7	choice2	n/a	1	n/a
113.23501900000001	1.5	n/a	n/a	7	outcome	n/a	n/a	0
114.73501900000001	6.566938400000014	12.383705099999991	n/a	7	ITI_onset	n/a	n/a	n/a
121.3019574	0.28369509999998266	5.816766699999978	0.28369509999998266	8	stim1	n/a	n/a	n/a
121.5856525	0.016329100000002653	5.533071599999996	n/a	8	choice1	0	n/a	n/a
127.1187241	0.39945120000001044	2.416676700000011	0.39945120000001044	8	stim2	n/a	0	n/a
127.51817530000001	0.017225500000000466	2.0172255000000003	n/a	8	choice2	n/a	0	n/a
129.5354008	1.5	n/a	n/a	8	outcome	n/a	n/a	0
131.0354008	3.5668989	6.400159299999999	n/a	8	ITI_onset	n/a	n/a	n/a
134.6022997	0.30221749999999886	2.833260399999999	0.30221749999999886	9	stim1	n/a	n/a	n/a
134.9045172	0.01438389999998617	2.5310429000000005	n/a	9	choice1	1	n/a	n/a
137.43556009999998	0.4292062999999907	6.933349699999992	0.4292062999999907	9	stim2	n/a	0	n/a
137.8647664	0.004143400000000838	6.504143400000001	n/a	9	choice2	n/a	0	n/a
144.36890979999998	1.5	n/a	n/a	9	outcome	n/a	n/a	1
145.86890979999998	2.066814299999998	7.200295299999998	n/a	9	ITI_onset	n/a	n/a	n/a
147.93572410000002	2.609971500000014	5.133481	2.609971500000014	10	stim1	n/a	n/a	n/a
150.5456956	0.006769700000004378	2.5235094999999856	n/a	10	choice1	1	n/a	n/a
153.06920509999998	0.581391100000008	4.09994750000001	0.581391100000008	10	stim2	n/a	1	n/a
153.6505962	0.018556400000001305	3.5185564000000014	n/a	10	choice2	n/a	1	n/a
157.16915260000002	1.5	n/a	n/a	10	outcome	n/a	n/a	0
158.66915260000002	3.066773599999986	14.450332800000004	n/a	10	ITI_onset	n/a	n/a	n/a
161.7359262	3.348688700000028	11.383559200000018	3.348688700000028	11	stim1	n/a	n/a	n/a
165.08461490000002	0.018017499999987193	8.03487049999999	n/a	11	choice1	0	n/a	n/a
173.11948540000003	1.7420952999999864	4.750015599999984	1.7420952999999864	11	stim2	n/a	1	n/a
174.8615807	0.007920299999997951	3.007920299999998	n/a	11	choice2	n/a	1	n/a
177.869501	1.5	n/a	n/a	11	outcome	n/a	n/a	1
179.369501	4.066851000000025	19.2837359	n/a	11	ITI_onset	n/a	n/a	n/a
183.436352	7.179861599999975	15.216884899999975	7.179861599999975	12	stim1	n/a	n/a	n/a
190.61621359999998	0.020139400000014577	8.037023300000001	n/a	12	choice1	0	n/a	n/a
198.65323689999997	0.46592130000001636	3.9833371000000044	0.46592130000001636	12	stim2	n/a	1	n/a
199.11915820000002	0.01741579999998794	3.5174157999999878	n/a	12	choice2	n/a	1	n/a
202.636574	1.5	n/a	n/a	12	outcome	n/a	n/a	1
204.136574	4.06681270000001	6.716896000000008	n/a	12	ITI_onset	n/a	n/a	n/a
208.2033867	0.6140243999999948	2.6500832999999986	0.6140243999999948	13	stim1	n/a	n/a	n/a
208.81741110000002	0.01930809999999474	2.0360589000000036	n/a	13	choice1	1	n/a	n/a
210.85347000000002	0.5360325000000011	8.050007099999988	0.5360325000000011	13	stim2	n/a	0	n/a
211.3895025	0.013974599999986822	7.513974599999987	n/a	13	choice2	n/a	0	n/a
218.90347709999998	1.5	n/a	n/a	13	outcome	n/a	n/a	0
220.40347709999998	4.566880499999999	11.917055400000011	n/a	13	ITI_onset	n/a	n/a	n/a
224.9703576	0.32909990000000106	7.350174900000012	0.32909990000000106	14	stim1	n/a	n/a	n/a
225.29945750000002	0.0042078000000037715	7.021075000000011	n/a	14	choice1	0	n/a	n/a
232.3205325	0.3070429000000004	2.8165571000000345	0.3070429000000004	14	stim2	n/a	1	n/a
232.6275754	0.009514200000005076	2.509514200000034	n/a	14	choice2	n/a	1	n/a
235.13708960000002	1.5	n/a	n/a	14	outcome	n/a	n/a	0
236.63708960000002	2.566821899999981	6.833561199999938	n/a	14	ITI_onset	n/a	n/a	n/a
239.2039115	0.24428190000000177	4.266739299999958	0.24428190000000177	15	stim1	n/a	n/a	n/a
239.44819340000004	0.005739000000001397	4.022457399999956	n/a	15	choice1	1	n/a	n/a
243.4706508	0.3875888000000268	3.399996600000013	0.3875888000000268	15	stim2	n/a	0	n/a
243.8582396	0.01240779999998631	3.0124077999999863	n/a	15	choice2	n/a	0	n/a
246.8706474	1.5	n/a	n/a	15	outcome	n/a	n/a	0
248.3706474	3.5668441999999922	8.950213099999994	n/a	15	ITI_onset	n/a	n/a	n/a
251.9374916	0.3480712000000058	5.383368900000002	0.3480712000000058	16	stim1	n/a	n/a	n/a
252.28556279999998	0.018489300000015647	5.035297699999996	n/a	16	choice1	1	n/a	n/a
257.3208605	0.41673889999999664	2.9333375000000235	0.41673889999999664	16	stim2	n/a	1	n/a
257.73759939999997	0.016598600000026636	2.5165986000000267	n/a	16	choice2	n/a	1	n/a
260.25419800000003	1.5	n/a	n/a	16	outcome	n/a	n/a	1
261.75419800000003	4.566805899999977	8.866927599999995	n/a	16	ITI_onset	n/a	n/a	n/a
266.3210039	0.27257360000000336	4.300121700000018	0.27257360000000336	17	stim1	n/a	n/a	n/a
266.5935775	0.010762300000002141	4.027548100000015	n/a	17	choice1	1	n/a	n/a
270.6211256	0.6104704999999958	3.616641899999988	0.6104704999999958	17	stim2	n/a	0	n/a
271.2315961	0.00617139999999199	3.006171399999992	n/a	17	choice2	n/a	0	n/a
274.2377675	1.5	n/a	n/a	17	outcome	n/a	n/a	1
275.7377675	3.066764300000039	11.033562399999996	n/a	17	ITI_onset	n/a	n/a	n/a
278.80453180000006	3.9386362999999545	7.966798099999957	3.9386362999999545	18	stim1	n/a	n/a	n/a
282.7431681	0.01143739999999525	4.028161800000001	n/a	18	choice1	1	n/a	n/a
286.7713299	0.0189037000000244	8.050008399999992	0.0189037000000244	18	stim2	n/a	1	n/a
286.7902336	0.031104699999967126	8.031104699999966	n/a	18	choice2	n/a	1	n/a
294.8213383	1.5	n/a	n/a	18	outcome	n/a	n/a	0
296.3213383	8.06694160000002	10.966986400000053	n/a	18	ITI_onset	n/a	n/a	n/a
304.3882799	0.36947210000001357	2.9000448000000323	0.36947210000001357	19	stim1	n/a	n/a	n/a
304.75775200000004	0.013869000000006054	2.5305727000000187	n/a	19	choice1	1	n/a	n/a
307.28832470000003	0.6872194999999484	5.700046799999953	0.6872194999999484	19	stim2	n/a	1	n/a
307.9755442	0.01282730000000447	5.012827300000004	n/a	19	choice2	n/a	1	n/a
312.98837149999997	1.5	n/a	n/a	19	outcome	n/a	n/a	0
314.48837149999997	4.066825000000011	6.90019750000001	n/a	19	ITI_onset	n/a	n/a	n/a
318.5551965	0.3053080000000191	2.8333724999999976	0.3053080000000191	20	stim1	n/a	n/a	n/a
318.86050450000005	0.011355299999995622	2.5280644999999784	n/a	20	choice1	0	n/a	n/a
321.388569	0.5371184000000357	4.050035000000032	0.5371184000000357	20	stim2	n/a	1	n/a
321.9256874	0.012916599999996833	3.512916599999997	n/a	20	choice2	n/a	1	n/a
325.43860400000005	1.5	n/a	n/a	20	outcome	n/a	n/a	0
326.93860400000005	2.5667906000000076	5.566877399999997	n/a	20	ITI_onset	n/a	n/a	n/a
329.50539460000005	0.4637757999999449	3.00008679999999	0.4637757999999449	21	stim1	n/a	n/a	n/a
329.9691704	0.019527800000039862	2.5363110000000453	n/a	21	choice1	0	n/a	n/a
332.5054814	0.4761109999999753	2.4832197999999623	0.4761109999999753	21	stim2	n/a	1	n/a
332.9815924	0.007108799999987241	2.0071087999999873	n/a	21	choice2	n/a	1	n/a
334.9887012	1.5	n/a	n/a	21	outcome	n/a	n/a	0
336.4887012	7.5669216000000015	15.867045500000007	n/a	21	ITI_onset	n/a	n/a	n/a
344.0556228	0.27506260000000476	8.300123900000006	0.27506260000000476	22	stim1	n/a	n/a	n/a
344.3306854	0.008254100000020116	8.0250613	n/a	22	choice1	1	n/a	n/a
352.3557467	0.46056829999998444	2.966643700000015	0.46056829999998444	22	stim2	n/a	0	n/a
352.816315	0.00607540000003064	2.5060754000000305	n/a	22	choice2	n/a	0	n/a
355.3223904	1.5	n/a	n/a	22	outcome	n/a	n/a	1
356.8223904	8.066895499999983	13.950314799999992	n/a	22	ITI_onset	n/a	n/a	n/a
364.8892859	0.3473498000000254	5.883419300000009	0.3473498000000254	23	stim1	n/a	n/a	n/a
365.2366357	0.019288599999970756	5.536069499999983	n/a	23	choice1	1	n/a	n/a
370.7727052	0.4629438000000082	3.9832961999999825	0.4629438000000082	23	stim2	n/a	0	n/a
371.235649	0.020352399999974295	3.5203523999999744	n/a	23	choice2	n/a	0	n/a
374.7560014	1.5	n/a	n/a	23	outcome	n/a	n/a	1
376.2560014	5.066880000000005	8.883595300000044	n/a	23	ITI_onset	n/a	n/a	n/a
381.32288139999997	0.28679039999999806	3.81671530000004	0.28679039999999806	24	stim1	n/a	n/a	n/a
381.6096718	0.013207900000037626	3.529924900000042	n/a	24	choice1	1	n/a	n/a
385.1395967	0.5269057999999496	3.5333399999999675	0.5269057999999496	24	stim2	n/a	0	n/a
385.6665025	0.006434200000017882	3.006434200000018	n/a	24	choice2	n/a	0	n/a
388.6729367	1.5	n/a	n/a	24	outcome	n/a	n/a	1
390.1729367	4.600187099999981	7.416901899999997	n/a	24	ITI_onset	n/a	n/a	n/a
394.7731238	0.2754978000000119	2.816714800000016	0.2754978000000119	25	stim1	n/a	n/a	n/a
395.0486216	0.007771700000041164	2.541217000000004	n/a	25	choice1	1	n/a	n/a
397.5898386	0.434859300000011	2.4499807000000144	0.434859300000011	25	stim2	n/a	0	n/a
398.02469790000004	0.015121400000003633	2.0151214000000035	n/a	25	choice2	n/a	0	n/a
400.03981930000003	1.5	n/a	n/a	25	outcome	n/a	n/a	1
401.53981930000003	1.0	1.0	n/a	25	ITI_onset	n/a	n/a	n/a
