onset	duration	duration2fb	response_time	trial	event	choice1	state	reward
0.0	0.5213839000000007	4.566732100000001	0.5213839000000007	1	stim1	n/a	n/a	n/a
0.5213839000000036	0.028852600000001984	4.0453482	n/a	1	choice1	1	n/a	n/a
4.566732100000003	0.6022060999999994	3.1166643000000005	0.6022060999999994	1	stim2	n/a	0	n/a
5.168938200000003	0.014458200000000943	2.514458200000001	n/a	1	choice2	n/a	0	n/a
7.683396400000003	1.5	n/a	n/a	1	outcome	n/a	n/a	0
9.183396400000003	6.066845700000002	12.333586899999998	n/a	1	ITI_onset	n/a	n/a	n/a
15.250242100000005	0.7296881999999969	6.266741199999997	0.7296881999999969	2	stim1	n/a	n/a	n/a
15.979930300000003	0.02026480000000447	5.537053	n/a	2	choice1	1	n/a	n/a
21.516983300000003	0.6799060000000027	3.2000089000000007	0.6799060000000027	2	stim2	n/a	0	n/a
22.196889300000006	0.020102899999998043	2.520102899999998	n/a	2	choice2	n/a	0	n/a
24.716992200000004	1.5	n/a	n/a	2	outcome	n/a	n/a	1
26.216992200000004	4.5668142000000005	10.716895300000004	n/a	2	ITI_onset	n/a	n/a	n/a
30.7838064	1.627999100000001	6.150081100000003	1.627999100000001	3	stim1	n/a	n/a	n/a
32.4118055	0.005363499999999476	4.522082000000002	n/a	3	choice1	0	n/a	n/a
36.93388750000001	0.701900999999998	2.7167100999999967	0.701900999999998	3	stim2	n/a	1	n/a
37.635788500000004	0.01480909999999858	2.0148090999999986	n/a	3	choice2	n/a	1	n/a
39.6505976	1.5	n/a	n/a	3	outcome	n/a	n/a	1
41.1505976	5.066769199999995	8.3834893	n/a	3	ITI_onset	n/a	n/a	n/a
46.21736680000001	0.7800225000000064	3.3167201000000057	0.7800225000000064	4	stim1	n/a	n/a	n/a
46.99738930000001	0.02001230000000214	2.5366975999999997	n/a	4	choice1	0	n/a	n/a
49.534086900000005	5.913706600000005	10.933408899999995	5.913706600000005	4	stim2	n/a	1	n/a
55.44779350000002	0.019702299999989917	5.01970229999999	n/a	4	choice2	n/a	1	n/a
60.46749580000001	1.5	n/a	n/a	4	outcome	n/a	n/a	1
61.96749580000001	8.566910600000003	13.300308600000005	n/a	4	ITI_onset	n/a	n/a	n/a
70.53440640000001	1.2103410000000003	4.733398000000001	1.2103410000000003	5	stim1	n/a	n/a	n/a
71.74474740000001	0.006360400000005029	3.5230570000000005	n/a	5	choice1	0	n/a	n/a
75.2678044	9.158074999999997	17.166797399999997	9.158074999999997	5	stim2	n/a	1	n/a
84.4258794	0.008722399999998742	8.008722399999998	n/a	5	choice2	n/a	1	n/a
92.4346018	1.5	n/a	n/a	5	outcome	n/a	n/a	1
93.9346018	4.066917000000001	9.166956700000009	n/a	5	ITI_onset	n/a	n/a	n/a
98.0015188	1.5671858999999968	5.100039700000009	1.5671858999999968	6	stim1	n/a	n/a	n/a
99.5687047	0.016139400000000022	3.532853800000012	n/a	6	choice1	1	n/a	n/a
103.10155850000001	6.151201399999991	8.166763099999981	6.151201399999991	6	stim2	n/a	0	n/a
109.25275990000002	0.015561699999991106	2.0155616999999912	n/a	6	choice2	n/a	0	n/a
111.2683216	1.5	n/a	n/a	6	outcome	n/a	n/a	1
112.7683216	4.566810900000012	10.116868000000016	n/a	6	ITI_onset	n/a	n/a	n/a
117.3351325	1.0206143999999913	5.550057100000005	1.0206143999999913	7	stim1	n/a	n/a	n/a
118.3557469	0.012713000000017929	4.529442700000014	n/a	7	choice1	1	n/a	n/a
122.8851896	1.796453899999993	6.316705499999982	1.796453899999993	7	stim2	n/a	0	n/a
124.68164349999999	0.020251599999988684	4.520251599999988	n/a	7	choice2	n/a	0	n/a
129.20189509999997	1.5	n/a	n/a	7	outcome	n/a	n/a	0
130.70189509999997	3.5668007000000217	7.400189200000023	n/a	7	ITI_onset	n/a	n/a	n/a
134.2686958	1.3018961999999883	3.8333885000000008	1.3018961999999883	8	stim1	n/a	n/a	n/a
135.57059199999998	0.01481109999999171	2.5314923000000125	n/a	8	choice1	0	n/a	n/a
138.1020843	3.4221710000000023	9.933389399999985	3.4221710000000023	8	stim2	n/a	1	n/a
141.5242553	0.011218399999983376	6.511218399999984	n/a	8	choice2	n/a	1	n/a
148.03547369999998	1.5	n/a	n/a	8	outcome	n/a	n/a	1
149.53547369999998	2.5668304000000064	6.583565499999997	n/a	8	ITI_onset	n/a	n/a	n/a
152.1023041	0.986359300000011	4.016735099999991	0.986359300000011	9	stim1	n/a	n/a	n/a
153.0886634	0.013664900000003399	3.03037579999998	n/a	9	choice1	1	n/a	n/a
156.11903919999997	15.993156799999998	18.500255000000006	15.993156799999998	9	stim2	n/a	0	n/a
172.11219599999998	0.007098200000007637	2.5070982000000077	n/a	9	choice2	n/a	0	n/a
174.61929419999998	1.5	n/a	n/a	9	outcome	n/a	n/a	1
176.11929419999998	4.066797099999996	39.8173082	n/a	9	ITI_onset	n/a	n/a	n/a
180.1860913	32.227472600000006	35.750511100000004	32.227472600000006	10	stim1	n/a	n/a	n/a
212.41356389999999	0.006293899999989663	3.5230384999999953	n/a	10	choice1	1	n/a	n/a
215.9366024	8.224840200000006	10.233464500000002	8.224840200000006	10	stim2	n/a	0	n/a
224.1614426	0.008624299999995855	2.0086242999999957	n/a	10	choice2	n/a	0	n/a
226.1700669	1.5	n/a	n/a	10	outcome	n/a	n/a	1
227.6700669	3.5667801000000035	11.41687479999999	n/a	10	ITI_onset	n/a	n/a	n/a
231.23684699999998	5.816767099999997	7.850094699999987	5.816767099999997	11	stim1	n/a	n/a	n/a
237.05361409999998	0.016660299999988637	2.0333275999999896	n/a	11	choice1	0	n/a	n/a
239.08694169999998	20.26330540000001	25.283642099999998	20.26330540000001	11	stim2	n/a	1	n/a
259.35024710000005	0.020336699999985285	5.020336699999985	n/a	11	choice2	n/a	1	n/a
264.3705838	1.5	n/a	n/a	11	outcome	n/a	n/a	1
265.8705838	4.066846100000024	18.583727300000028	n/a	11	ITI_onset	n/a	n/a	n/a
269.93742990000004	7.487762500000011	14.516881200000004	7.487762500000011	12	stim1	n/a	n/a	n/a
277.4251924	0.012364599999971687	7.029118699999992	n/a	12	choice1	1	n/a	n/a
284.45431110000004	0.7490799000000116	5.266662299999967	0.7490799000000116	12	stim2	n/a	0	n/a
285.20339100000007	0.01758239999995567	4.517582399999956	n/a	12	choice2	n/a	0	n/a
289.7209734	1.5	n/a	n/a	12	outcome	n/a	n/a	0
291.2209734	8.566887300000003	32.95060840000003	n/a	12	ITI_onset	n/a	n/a	n/a
299.7878607	21.35365500000003	24.383721100000024	21.35365500000003	13	stim1	n/a	n/a	n/a
321.1415157	0.013296099999977742	3.0300660999999964	n/a	13	choice1	1	n/a	n/a
324.1715818	0.6587362999999896	6.66667690000002	0.6587362999999896	13	stim2	n/a	0	n/a
324.8303181	0.007940600000030827	6.007940600000031	n/a	13	choice2	n/a	0	n/a
330.83825870000004	1.5	n/a	n/a	13	outcome	n/a	n/a	0
332.33825870000004	3.0668268999999855	11.033628499999992	n/a	13	ITI_onset	n/a	n/a	n/a
335.4050856	5.407135799999989	7.966801600000006	5.407135799999989	14	stim1	n/a	n/a	n/a
340.8122214	0.042910800000012385	2.559665800000017	n/a	14	choice1	1	n/a	n/a
343.37188720000006	3.054240599999961	11.066690100000008	3.054240599999961	14	stim2	n/a	0	n/a
346.4261278	0.0124495000000461	8.012449500000047	n/a	14	choice2	n/a	0	n/a
354.4385773	1.5	n/a	n/a	14	outcome	n/a	n/a	1
355.9385773	3.6001974999999513	10.03360759999999	n/a	14	ITI_onset	n/a	n/a	n/a
359.5387748	0.9000156000000424	6.433410100000037	0.9000156000000424	15	stim1	n/a	n/a	n/a
360.4387904	0.01669990000000689	5.533394499999995	n/a	15	choice1	1	n/a	n/a
365.97218490000006	4.865950799999991	11.883416700000001	4.865950799999991	15	stim2	n/a	1	n/a
370.8381357	0.01746590000001015	7.01746590000001	n/a	15	choice2	n/a	1	n/a
377.85560160000006	1.5	n/a	n/a	15	outcome	n/a	n/a	0
379.35560160000006	3.083531299999973	21.55045689999999	n/a	15	ITI_onset	n/a	n/a	n/a
382.4391329	16.431640200000025	18.466925600000017	16.431640200000025	16	stim1	n/a	n/a	n/a
398.8707731	0.018593099999998232	2.0352853999999936	n/a	16	choice1	0	n/a	n/a
400.90605850000003	2.6810289999999806	5.200054799999983	2.6810289999999806	16	stim2	n/a	1	n/a
403.5870875	0.019025800000003073	2.519025800000003	n/a	16	choice2	n/a	1	n/a
406.1061133	1.5	n/a	n/a	16	outcome	n/a	n/a	1
407.6061133	5.566806900000025	11.5502537	n/a	16	ITI_onset	n/a	n/a	n/a
413.1729202	0.94683679999999	5.983446799999976	0.94683679999999	17	stim1	n/a	n/a	n/a
414.11975700000005	0.019862699999997856	5.036609999999986	n/a	17	choice1	0	n/a	n/a
419.156367	0.7487336999999825	6.766657100000011	0.7487336999999825	17	stim2	n/a	0	n/a
419.9051007	0.017923400000028778	6.017923400000028	n/a	17	choice2	n/a	0	n/a
425.9230241	1.5	n/a	n/a	17	outcome	n/a	n/a	1
427.4230241	2.0668434000000127	13.283651100000018	n/a	17	ITI_onset	n/a	n/a	n/a
429.48986750000006	9.194388899999963	11.216807700000006	9.194388899999963	18	stim1	n/a	n/a	n/a
438.6842564	0.005681100000045262	2.022418800000043	n/a	18	choice1	0	n/a	n/a
440.70667520000006	9.93735699999996	11.950138099999982	9.93735699999996	18	stim2	n/a	1	n/a
450.6440322	0.012781100000021979	2.012781100000022	n/a	18	choice2	n/a	1	n/a
452.6568133	1.5	n/a	n/a	18	outcome	n/a	n/a	0
454.1568133	2.5667551000000093	12.600247600000003	n/a	18	ITI_onset	n/a	n/a	n/a
456.72356840000003	7.999017599999963	10.033492499999992	7.999017599999963	19	stim1	n/a	n/a	n/a
464.722586	0.017797500000044236	2.0344749000000304	n/a	19	choice1	0	n/a	n/a
466.7570609	0.6608424000000231	7.666753499999992	0.6608424000000231	19	stim2	n/a	1	n/a
467.41790330000003	0.005911099999968428	7.0059110999999685	n/a	19	choice2	n/a	1	n/a
474.4238144	1.5	n/a	n/a	19	outcome	n/a	n/a	0
475.9238144	3.5667924999999814	16.516976299999982	n/a	19	ITI_onset	n/a	n/a	n/a
479.4906069	5.4210049	12.9501838	5.4210049	20	stim1	n/a	n/a	n/a
484.9116118	0.01238950000004843	7.529178899999999	n/a	20	choice1	0	n/a	n/a
492.4407907	8.0311201	15.550152200000069	8.0311201	20	stim2	n/a	0	n/a
500.47191080000005	0.01903210000001127	7.51903210000007	n/a	20	choice2	n/a	0	n/a
507.99094290000005	1.5	n/a	n/a	20	outcome	n/a	n/a	1
509.49094290000005	3.5668148999999976	7.6835625	n/a	20	ITI_onset	n/a	n/a	n/a
513.0577578000001	1.581244299999904	4.116747600000003	1.581244299999904	21	stim1	n/a	n/a	n/a
514.6390021	0.018800800000084564	2.5355033000000984	n/a	21	choice1	1	n/a	n/a
517.1745054	0.6472686999998987	5.666661800000002	0.6472686999998987	21	stim2	n/a	0	n/a
517.8217741	0.019393100000103004	5.019393100000103	n/a	21	choice2	n/a	0	n/a
522.8411672000001	1.5	n/a	n/a	21	outcome	n/a	n/a	1
524.3411672000001	4.066877399999997	8.716956599999918	n/a	21	ITI_onset	n/a	n/a	n/a
528.4080446	1.1238408000000053	4.6500791999999205	1.1238408000000053	22	stim1	n/a	n/a	n/a
529.5318854000001	0.009450799999991431	3.5262383999999147	n/a	22	choice1	0	n/a	n/a
533.0581238	0.6613941000000341	3.166600000000093	0.6613941000000341	22	stim2	n/a	0	n/a
533.7195179	0.005205900000059046	2.505205900000059	n/a	22	choice2	n/a	0	n/a
536.2247238000001	1.5	n/a	n/a	22	outcome	n/a	n/a	1
537.7247238000001	2.5667797999999022	16.83369469999999	n/a	22	ITI_onset	n/a	n/a	n/a
540.2915035999999	9.739472600000095	14.26691490000009	9.739472600000095	23	stim1	n/a	n/a	n/a
550.0309762	0.010670399999944492	4.527442299999995	n/a	23	choice1	0	n/a	n/a
554.5584185	20.2609831999999	25.766932099999977	20.2609831999999	23	stim2	n/a	1	n/a
574.8194017	0.00594890000007581	5.505948900000075	n/a	23	choice2	n/a	1	n/a
580.3253506000001	1.5	n/a	n/a	23	outcome	n/a	n/a	0
581.8253506000001	5.066867499999935	9.700256700000027	n/a	23	ITI_onset	n/a	n/a	n/a
586.8922181	2.603677400000044	4.633389200000092	2.603677400000044	24	stim1	n/a	n/a	n/a
589.4958955000001	0.013014500000048428	2.0297118000000482	n/a	24	choice1	1	n/a	n/a
591.5256073	1.958217699999921	4.9667109999998935	1.958217699999921	24	stim2	n/a	0	n/a
593.483825	0.008493299999972805	3.008493299999973	n/a	24	choice2	n/a	0	n/a
596.4923183	1.5	n/a	n/a	24	outcome	n/a	n/a	1
597.9923183	4.066798999999999	15.466957800000092	n/a	24	ITI_onset	n/a	n/a	n/a
602.0591172999999	4.87770980000007	11.400158800000092	4.87770980000007	25	stim1	n/a	n/a	n/a
606.9368271000001	0.005709200000041164	6.522449000000022	n/a	25	choice1	0	n/a	n/a
613.4592761	55.76103019999992	58.76751809999999	55.76103019999992	25	stim2	n/a	1	n/a
669.2203063	0.006487900000065565	3.0064879000000655	n/a	25	choice2	n/a	1	n/a
672.2267942000001	1.5	n/a	n/a	25	outcome	n/a	n/a	0
673.7267942000001	1.0	1.0	n/a	25	ITI_onset	n/a	n/a	n/a
