onset	duration	duration2fb	response_time	trial	event	choice1	state	reward
0.0	0.2388902999999991	2.7833679999999985	0.2388902999999991	1	stim1	n/a	n/a	n/a
0.23889029999999778	0.02821299999999974	2.5444776999999994	n/a	1	choice1	0	n/a	n/a
2.783367999999996	0.6044189000000005	3.616670000000002	0.6044189000000005	1	stim2	n/a	0	n/a
3.3877868999999983	0.012251100000001316	3.012251100000001	n/a	1	choice2	n/a	0	n/a
6.400037999999999	1.5	n/a	n/a	1	outcome	n/a	n/a	0
7.900037999999999	2.566763999999999	5.9334879	n/a	1	ITI_onset	n/a	n/a	n/a
10.466801999999998	0.3367592999999979	3.3667239000000007	0.3367592999999979	2	stim1	n/a	n/a	n/a
10.803561299999995	0.013233500000002096	3.029964600000003	n/a	2	choice1	0	n/a	n/a
13.833525899999998	0.7262911000000022	4.733361599999997	0.7262911000000022	2	stim2	n/a	0	n/a
14.559817000000002	0.007070499999994354	4.007070499999994	n/a	2	choice2	n/a	0	n/a
18.566887499999993	1.5	n/a	n/a	2	outcome	n/a	n/a	0
20.066887499999993	7.066834699999999	13.916927800000005	n/a	2	ITI_onset	n/a	n/a	n/a
27.133722199999994	0.3286140000000014	6.850093100000006	0.3286140000000014	3	stim1	n/a	n/a	n/a
27.462336199999996	0.004731700000003912	6.521479100000004	n/a	3	choice1	0	n/a	n/a
33.9838153	0.6317834000000002	3.150004099999998	0.6317834000000002	3	stim2	n/a	0	n/a
34.6155987	0.018220699999998032	2.518220699999998	n/a	3	choice2	n/a	0	n/a
37.1338194	1.5	n/a	n/a	3	outcome	n/a	n/a	0
38.6338194	5.566786899999999	12.200225400000003	n/a	3	ITI_onset	n/a	n/a	n/a
44.2006063	0.606132700000002	6.633438500000004	0.606132700000002	4	stim1	n/a	n/a	n/a
44.806739	0.010550400000000081	6.0273058000000015	n/a	4	choice1	1	n/a	n/a
50.8340448	1.0426733999999998	3.0500195999999997	1.0426733999999998	4	stim2	n/a	0	n/a
51.8767182	0.007346199999999954	2.0073461999999997	n/a	4	choice2	n/a	0	n/a
53.8840644	1.5	n/a	n/a	4	outcome	n/a	n/a	0
55.3840644	4.0667945999999935	9.483517200000001	n/a	4	ITI_onset	n/a	n/a	n/a
59.450858999999994	0.39037020000000483	5.416722600000008	0.39037020000000483	5	stim1	n/a	n/a	n/a
59.8412292	0.009578099999998813	5.026352400000003	n/a	5	choice1	0	n/a	n/a
64.86758160000001	0.5921239999999962	8.100070399999996	0.5921239999999962	5	stim2	n/a	1	n/a
65.4597056	0.007946400000000721	7.507946400000001	n/a	5	choice2	n/a	1	n/a
72.967652	1.5	n/a	n/a	5	outcome	n/a	n/a	0
74.467652	7.566864199999996	12.983591700000005	n/a	5	ITI_onset	n/a	n/a	n/a
82.0345162	0.392057799999995	5.416727500000008	0.392057799999995	6	stim1	n/a	n/a	n/a
82.42657399999999	0.007968000000008033	5.024669700000013	n/a	6	choice1	1	n/a	n/a
87.4512437	1.2863285999999934	3.8000340999999898	1.2863285999999934	6	stim2	n/a	1	n/a
88.7375723	0.01370549999999639	2.5137054999999964	n/a	6	choice2	n/a	1	n/a
91.2512778	1.5	n/a	n/a	6	outcome	n/a	n/a	0
92.7512778	3.5667598	6.150139900000009	n/a	6	ITI_onset	n/a	n/a	n/a
96.3180376	0.5461086000000068	2.5833801000000096	0.5461086000000068	7	stim1	n/a	n/a	n/a
96.86414620000001	0.02055929999999353	2.0372715000000023	n/a	7	choice1	1	n/a	n/a
98.90141770000001	0.7762614999999933	7.783319199999998	0.7762614999999933	7	stim2	n/a	1	n/a
99.6776792	0.0070577000000048426	7.007057700000005	n/a	7	choice2	n/a	1	n/a
106.6847369	1.5	n/a	n/a	7	outcome	n/a	n/a	1
108.1847369	5.566954599999997	10.516970299999986	n/a	7	ITI_onset	n/a	n/a	n/a
113.7516915	0.42193069999999716	4.950015699999989	0.42193069999999716	8	stim1	n/a	n/a	n/a
114.1736222	0.011359700000000885	4.528084999999992	n/a	8	choice1	1	n/a	n/a
118.7017072	0.8409464000000153	5.349983100000012	0.8409464000000153	8	stim2	n/a	1	n/a
119.54265360000001	0.009036699999996926	4.509036699999997	n/a	8	choice2	n/a	1	n/a
124.0516903	1.5	n/a	n/a	8	outcome	n/a	n/a	0
125.5516903	4.066820799999987	10.0002322	n/a	8	ITI_onset	n/a	n/a	n/a
129.61851109999998	0.4111036000000022	5.933411400000012	0.4111036000000022	9	stim1	n/a	n/a	n/a
130.02961469999997	0.0055503000000026075	5.52230780000001	n/a	9	choice1	0	n/a	n/a
135.5519225	0.7076511999999929	5.216677200000006	0.7076511999999929	9	stim2	n/a	0	n/a
136.25957369999998	0.009026000000012573	4.509026000000013	n/a	9	choice2	n/a	0	n/a
140.76859969999998	1.5	n/a	n/a	9	outcome	n/a	n/a	0
142.26859969999998	6.56678839999999	14.416950799999992	n/a	9	ITI_onset	n/a	n/a	n/a
148.8353881	0.326125	7.850162400000001	0.326125	10	stim1	n/a	n/a	n/a
149.16151309999998	0.0072501000000047494	7.524037400000001	n/a	10	choice1	0	n/a	n/a
156.68555049999998	0.6906331000000063	2.7000107000000133	0.6906331000000063	10	stim2	n/a	0	n/a
157.3761836	0.009377600000007077	2.009377600000007	n/a	10	choice2	n/a	0	n/a
159.38556119999998	1.5	n/a	n/a	10	outcome	n/a	n/a	0
160.88556119999998	3.0667733999999762	7.016816299999976	n/a	10	ITI_onset	n/a	n/a	n/a
163.95233459999997	0.42922840000002177	3.9500429000000006	0.42922840000002177	11	stim1	n/a	n/a	n/a
164.38156300000003	0.004054199999984121	3.5208144999999784	n/a	11	choice1	0	n/a	n/a
167.9023775	0.6181041000000259	3.633321200000006	0.6181041000000259	11	stim2	n/a	0	n/a
168.52048160000004	0.015217099999979836	3.0152170999999797	n/a	11	choice2	n/a	0	n/a
171.5356987	1.5	n/a	n/a	11	outcome	n/a	n/a	0
173.0356987	4.566854200000002	9.400218200000003	n/a	11	ITI_onset	n/a	n/a	n/a
177.60255289999998	0.3101284999999916	4.833364000000001	0.3101284999999916	12	stim1	n/a	n/a	n/a
177.9126814	0.006575200000021141	4.52323550000001	n/a	12	choice1	0	n/a	n/a
182.4359169	1.1632109000000055	4.683341199999996	1.1632109000000055	12	stim2	n/a	0	n/a
183.59912780000002	0.020130299999989804	3.5201302999999897	n/a	12	choice2	n/a	0	n/a
187.11925809999997	1.5	n/a	n/a	12	outcome	n/a	n/a	1
188.61925809999997	4.566814600000012	10.916923100000014	n/a	12	ITI_onset	n/a	n/a	n/a
193.1860727	0.32756549999999696	6.350108500000002	0.32756549999999696	13	stim1	n/a	n/a	n/a
193.5136382	0.005766600000002654	6.022543000000005	n/a	13	choice1	0	n/a	n/a
199.5361812	0.8731956000000064	4.383330499999982	0.8731956000000064	13	stim2	n/a	0	n/a
200.40937680000002	0.01013489999997546	3.5101348999999753	n/a	13	choice2	n/a	0	n/a
203.9195117	1.5	n/a	n/a	13	outcome	n/a	n/a	1
205.4195117	3.0667697000000045	8.100188900000008	n/a	13	ITI_onset	n/a	n/a	n/a
208.4862814	0.49679170000000156	5.0334192000000035	0.49679170000000156	14	stim1	n/a	n/a	n/a
208.9830731	0.019840300000010757	4.5366275000000025	n/a	14	choice1	1	n/a	n/a
213.51970060000002	1.0688845000000147	5.5834424	1.0688845000000147	14	stim2	n/a	1	n/a
214.5885851	0.014557899999985238	4.514557899999986	n/a	14	choice2	n/a	1	n/a
219.103143	1.5	n/a	n/a	14	outcome	n/a	n/a	0
220.603143	8.06675899999999	11.950189899999998	n/a	14	ITI_onset	n/a	n/a	n/a
228.66990199999998	0.3625753000000259	3.8834309000000067	0.3625753000000259	15	stim1	n/a	n/a	n/a
229.03247730000004	0.004090599999995902	3.520855599999981	n/a	15	choice1	0	n/a	n/a
232.5533329	0.581222700000013	3.599955600000016	0.581222700000013	15	stim2	n/a	1	n/a
233.1345556	0.0187329000000027	3.0187329000000025	n/a	15	choice2	n/a	1	n/a
236.15328850000003	1.5	n/a	n/a	15	outcome	n/a	n/a	0
237.65328850000003	6.566851599999965	10.88358229999998	n/a	15	ITI_onset	n/a	n/a	n/a
244.22014009999998	0.2923188000000082	4.316730700000015	0.2923188000000082	16	stim1	n/a	n/a	n/a
244.5124589	0.007663600000028964	4.024411900000007	n/a	16	choice1	1	n/a	n/a
248.53687079999997	0.9797395000000252	7.5000009999999895	0.9797395000000252	16	stim2	n/a	1	n/a
249.51661030000002	0.020261499999964145	6.520261499999964	n/a	16	choice2	n/a	1	n/a
256.0368718	1.5	n/a	n/a	16	outcome	n/a	n/a	1
257.5368718	4.066852600000042	9.01690790000005	n/a	16	ITI_onset	n/a	n/a	n/a
261.60372440000003	0.4166419999999926	4.950055300000007	0.4166419999999926	17	stim1	n/a	n/a	n/a
262.0203664	0.016680499999958555	4.5334133000000145	n/a	17	choice1	1	n/a	n/a
266.55377970000006	0.5506376999999629	2.5670938209999585	0.5506376999999629	17	stim2	n/a	1	n/a
267.1044174	0.01645612099999562	2.0164561209999956	n/a	17	choice2	n/a	1	n/a
269.120873521	1.5	n/a	n/a	17	outcome	n/a	n/a	0
270.620873521	8.56645227900002	15.899886979000003	n/a	17	ITI_onset	n/a	n/a	n/a
279.1873258	0.3081659000000218	7.333434699999984	0.3081659000000218	18	stim1	n/a	n/a	n/a
279.49549170000006	0.008465700000000652	7.025268799999962	n/a	18	choice1	0	n/a	n/a
286.5207605	0.8657125000000233	5.883334299999988	0.8657125000000233	18	stim2	n/a	0	n/a
287.386473	0.017621799999964424	5.017621799999964	n/a	18	choice2	n/a	0	n/a
292.4040948	1.5	n/a	n/a	18	outcome	n/a	n/a	1
293.9040948	2.066753599999996	8.583524399999995	n/a	18	ITI_onset	n/a	n/a	n/a
295.97084839999997	1.4940391999999993	6.516770799999998	1.4940391999999993	19	stim1	n/a	n/a	n/a
297.4648876	0.005986700000008568	5.022731599999999	n/a	19	choice1	1	n/a	n/a
302.4876192	0.6648082000000286	2.6833475000000324	0.6648082000000286	19	stim2	n/a	1	n/a
303.1524274	0.018539300000004005	2.018539300000004	n/a	19	choice2	n/a	1	n/a
305.1709667	1.5	n/a	n/a	19	outcome	n/a	n/a	1
306.6709667	4.066823199999984	9.916830399999977	n/a	19	ITI_onset	n/a	n/a	n/a
310.7377899	0.31753519999998386	5.850007199999992	0.31753519999998386	20	stim1	n/a	n/a	n/a
311.0553251	0.01577750000002561	5.532472000000009	n/a	20	choice1	1	n/a	n/a
316.5877971	0.5375622999999905	6.550035000000032	0.5375622999999905	20	stim2	n/a	0	n/a
317.1253594	0.012472700000042096	6.012472700000042	n/a	20	choice2	n/a	0	n/a
323.1378321	1.5	n/a	n/a	20	outcome	n/a	n/a	0
324.6378321	8.066918699999981	11.883561400000007	n/a	20	ITI_onset	n/a	n/a	n/a
332.7047508	0.28412589999998455	3.816642700000026	0.28412589999998455	21	stim1	n/a	n/a	n/a
332.9888767	0.015847600000037345	3.532516800000041	n/a	21	choice1	0	n/a	n/a
336.52139350000004	0.6065293999999994	5.616717699999979	0.6065293999999994	21	stim2	n/a	1	n/a
337.12792290000004	0.01018829999997979	5.01018829999998	n/a	21	choice2	n/a	1	n/a
342.1381112	1.5	n/a	n/a	21	outcome	n/a	n/a	0
343.6381112	3.566856299999985	6.9501987000000085	n/a	21	ITI_onset	n/a	n/a	n/a
347.2049675	0.3522471000000369	3.383342400000023	0.3522471000000369	22	stim1	n/a	n/a	n/a
347.5572146	0.01437669999996433	3.0310952999999863	n/a	22	choice1	0	n/a	n/a
350.5883099	0.9775170999999973	6.48334659999999	0.9775170999999973	22	stim2	n/a	0	n/a
351.565827	0.00582949999999255	5.505829499999993	n/a	22	choice2	n/a	0	n/a
357.0716565	1.5	n/a	n/a	22	outcome	n/a	n/a	1
358.5716565	3.066793799999985	10.700190300000017	n/a	22	ITI_onset	n/a	n/a	n/a
361.6384503	0.5994294000000228	7.633396500000032	0.5994294000000228	23	stim1	n/a	n/a	n/a
362.2378797	0.017276100000017322	7.033967100000009	n/a	23	choice1	0	n/a	n/a
369.27184680000005	0.6133330999999889	2.6333882999999916	0.6133330999999889	23	stim2	n/a	1	n/a
369.8851799	0.020055200000002514	2.0200552000000025	n/a	23	choice2	n/a	1	n/a
371.9052351	1.5	n/a	n/a	23	outcome	n/a	n/a	0
373.4052351	5.06680739999999	7.483502999999968	n/a	23	ITI_onset	n/a	n/a	n/a
378.4720425	0.3812360999999801	2.416695599999977	0.3812360999999801	24	stim1	n/a	n/a	n/a
378.8532786	0.018762400000006892	2.0354594999999973	n/a	24	choice1	0	n/a	n/a
380.8887381	0.5215087000000058	3.033343900000036	0.5215087000000058	24	stim2	n/a	1	n/a
381.4102468	0.011835200000030454	2.5118352000000304	n/a	24	choice2	n/a	1	n/a
383.92208200000005	1.5	n/a	n/a	24	outcome	n/a	n/a	0
385.42208200000005	3.5667637000000103	11.433551099999983	n/a	24	ITI_onset	n/a	n/a	n/a
388.9888457	0.3453036999999895	7.866787399999972	0.3453036999999895	25	stim1	n/a	n/a	n/a
389.3341494	0.00470509999996284	7.521483699999982	n/a	25	choice1	1	n/a	n/a
396.8556331	2.514530299999984	4.53335639999999	2.514530299999984	25	stim2	n/a	1	n/a
399.37016339999997	0.01882610000000568	2.018826100000006	n/a	25	choice2	n/a	1	n/a
401.3889895	1.5	n/a	n/a	25	outcome	n/a	n/a	0
402.8889895	1.0	1.0	n/a	25	ITI_onset	n/a	n/a	n/a
