onset	duration	duration2fb	response_time	trial	event	choice1	state	reward
0.0	0.33592610000000056	5.866776099999999	0.33592610000000056	1	stim1	n/a	n/a	n/a
0.3359261000000018	0.0144971000000005	5.530849999999998	n/a	1	choice1	1	n/a	n/a
5.866776099999999	0.3669886000000006	3.383332000000002	0.3669886000000006	1	stim2	n/a	0	n/a
6.233764700000002	0.016343400000001566	3.0163434000000016	n/a	1	choice2	n/a	0	n/a
9.250108100000002	1.5	n/a	n/a	1	outcome	n/a	n/a	1
10.750108100000002	6.566817100000001	11.016878799999999	n/a	1	ITI_onset	n/a	n/a	n/a
17.316925200000004	0.42854769999999553	4.450061699999998	0.42854769999999553	2	stim1	n/a	n/a	n/a
17.7454729	0.004776000000005297	4.0215140000000025	n/a	2	choice1	1	n/a	n/a
21.766986900000003	0.3419674999999988	2.8500046999999977	0.3419674999999988	2	stim2	n/a	0	n/a
22.1089544	0.008037199999998848	2.5080371999999986	n/a	2	choice2	n/a	0	n/a
24.616991600000002	1.5	n/a	n/a	2	outcome	n/a	n/a	1
26.116991600000002	4.5668462	10.033526700000003	n/a	2	ITI_onset	n/a	n/a	n/a
30.683837799999996	0.44461220000000323	5.4666805000000025	0.44461220000000323	3	stim1	n/a	n/a	n/a
31.128450000000004	0.00532890000000043	5.022068299999999	n/a	3	choice1	1	n/a	n/a
36.1505183	1.352334499999997	3.3666898	1.352334499999997	3	stim2	n/a	1	n/a
37.5028528	0.014355300000002898	2.0143553000000027	n/a	3	choice2	n/a	1	n/a
39.517208100000005	1.5	n/a	n/a	3	outcome	n/a	n/a	0
41.017208100000005	5.066791099999995	7.900159200000002	n/a	3	ITI_onset	n/a	n/a	n/a
46.083999199999994	0.3119215000000113	2.833368100000007	0.3119215000000113	4	stim1	n/a	n/a	n/a
46.395920700000005	0.004762899999986985	2.5214465999999955	n/a	4	choice1	1	n/a	n/a
48.917367299999995	0.589991200000004	6.600014599999995	0.589991200000004	4	stim2	n/a	0	n/a
49.50735850000001	0.010023399999990943	6.010023399999991	n/a	4	choice2	n/a	0	n/a
55.51738189999999	1.5	n/a	n/a	4	outcome	n/a	n/a	1
57.01738189999999	3.066816300000006	11.466925100000008	n/a	4	ITI_onset	n/a	n/a	n/a
60.0841982	0.37222289999999336	8.400108800000002	0.37222289999999336	5	stim1	n/a	n/a	n/a
60.4564211	0.01110899999999674	8.027885900000008	n/a	5	choice1	1	n/a	n/a
68.484307	0.8625129999999918	6.866707999999999	0.8625129999999918	5	stim2	n/a	0	n/a
69.34682	0.004195000000006985	6.004195000000007	n/a	5	choice2	n/a	0	n/a
75.351015	1.5	n/a	n/a	5	outcome	n/a	n/a	1
76.851015	5.566823999999993	11.083578500000003	n/a	5	ITI_onset	n/a	n/a	n/a
82.417839	0.48996740000000866	5.51675450000001	0.48996740000000866	6	stim1	n/a	n/a	n/a
82.9078064	0.010070099999997183	5.026787100000002	n/a	6	choice1	1	n/a	n/a
87.9345935	1.0651781999999947	4.583368699999991	1.0651781999999947	6	stim2	n/a	0	n/a
88.9997717	0.018190499999996973	3.518190499999997	n/a	6	choice2	n/a	0	n/a
92.5179622	1.5	n/a	n/a	6	outcome	n/a	n/a	1
94.0179622	2.566795400000003	6.583478000000003	n/a	6	ITI_onset	n/a	n/a	n/a
96.5847576	0.9950348999999987	4.0166826	0.9950348999999987	7	stim1	n/a	n/a	n/a
97.5797925	0.00493739999999525	3.0216477000000013	n/a	7	choice1	1	n/a	n/a
100.6014402	0.2813512999999948	3.8000181000000013	0.2813512999999948	7	stim2	n/a	0	n/a
100.8827915	0.018666800000006332	3.5186668000000063	n/a	7	choice2	n/a	0	n/a
104.4014583	1.5	n/a	n/a	7	outcome	n/a	n/a	1
105.9014583	6.066810300000012	12.983525200000004	n/a	7	ITI_onset	n/a	n/a	n/a
111.96826860000002	0.3870093999999808	6.916714899999992	0.3870093999999808	8	stim1	n/a	n/a	n/a
112.355278	0.012975500000000466	6.529705500000011	n/a	8	choice1	1	n/a	n/a
118.8849835	0.39026979999998	3.900095100000006	0.39026979999998	8	stim2	n/a	0	n/a
119.27525329999997	0.009825300000025891	3.509825300000026	n/a	8	choice2	n/a	0	n/a
122.78507860000002	1.5	n/a	n/a	8	outcome	n/a	n/a	1
124.28507860000002	2.0667406999999947	6.616794099999999	n/a	8	ITI_onset	n/a	n/a	n/a
126.35181930000002	0.5288053000000073	4.550053400000004	0.5288053000000073	9	stim1	n/a	n/a	n/a
126.8806246	0.004480899999995017	4.021248099999997	n/a	9	choice1	1	n/a	n/a
130.9018727	0.23576889999999548	2.7500293999999994	0.23576889999999548	9	stim2	n/a	0	n/a
131.1376416	0.014260500000003958	2.514260500000004	n/a	9	choice2	n/a	0	n/a
133.6519021	1.5	n/a	n/a	9	outcome	n/a	n/a	1
135.1519021	7.066808900000003	10.566829899999982	n/a	9	ITI_onset	n/a	n/a	n/a
142.218711	0.4655587999999989	3.500020999999979	0.4655587999999989	10	stim1	n/a	n/a	n/a
142.6842698	0.017767299999977695	3.03446219999998	n/a	10	choice1	1	n/a	n/a
145.718732	0.8724995000000053	3.383349199999997	0.8724995000000053	10	stim2	n/a	1	n/a
146.5912315	0.010849699999991571	2.5108496999999916	n/a	10	choice2	n/a	1	n/a
149.1020812	1.5	n/a	n/a	10	outcome	n/a	n/a	0
150.6020812	6.066833899999998	10.433566900000006	n/a	10	ITI_onset	n/a	n/a	n/a
156.6689151	0.8408379000000131	4.366733000000007	0.8408379000000131	11	stim1	n/a	n/a	n/a
157.509753	0.00916500000000815	3.5258950999999943	n/a	11	choice1	1	n/a	n/a
161.0356481	0.8407854999999982	7.349998200000002	0.8407854999999982	11	stim2	n/a	0	n/a
161.87643359999998	0.009212700000003678	6.5092127000000035	n/a	11	choice2	n/a	0	n/a
168.3856463	1.5	n/a	n/a	11	outcome	n/a	n/a	0
169.8856463	4.566847700000013	7.200220600000001	n/a	11	ITI_onset	n/a	n/a	n/a
174.452494	0.6110658999999868	2.6333728999999875	0.6110658999999868	12	stim1	n/a	n/a	n/a
175.0635599	0.0056779000000096854	2.0223070000000005	n/a	12	choice1	1	n/a	n/a
177.08586689999998	0.7555530000000145	3.266672599999991	0.7555530000000145	12	stim2	n/a	0	n/a
177.8414199	0.011119599999976344	2.5111195999999762	n/a	12	choice2	n/a	0	n/a
180.35253949999998	1.5	n/a	n/a	12	outcome	n/a	n/a	1
181.85253949999998	2.066761300000013	5.633457900000009	n/a	12	ITI_onset	n/a	n/a	n/a
183.9193008	0.534343200000003	3.5666965999999958	0.534343200000003	13	stim1	n/a	n/a	n/a
184.453644	0.01568979999999283	3.0323533999999928	n/a	13	choice1	1	n/a	n/a
187.4859974	0.2811738999999943	2.300050500000012	0.2811738999999943	13	stim2	n/a	0	n/a
187.7671713	0.018876600000017788	2.018876600000018	n/a	13	choice2	n/a	0	n/a
189.7860479	1.5	n/a	n/a	13	outcome	n/a	n/a	0
191.2860479	2.566804899999988	5.133420699999988	n/a	13	ITI_onset	n/a	n/a	n/a
193.8528528	0.5417924000000057	2.5666157999999997	0.5417924000000057	14	stim1	n/a	n/a	n/a
194.3946452	0.008130399999994552	2.024823399999994	n/a	14	choice1	1	n/a	n/a
196.4194686	0.49294860000000335	5.500012400000007	0.49294860000000335	14	stim2	n/a	0	n/a
196.9124172	0.007063800000003539	5.007063800000004	n/a	14	choice2	n/a	0	n/a
201.919481	1.5	n/a	n/a	14	outcome	n/a	n/a	0
203.419481	8.066866799999989	15.55031760000001	n/a	14	ITI_onset	n/a	n/a	n/a
211.48634779999998	1.4527217999999993	7.48345080000002	1.4527217999999993	15	stim1	n/a	n/a	n/a
212.93906959999998	0.013978800000011688	6.030729000000021	n/a	15	choice1	1	n/a	n/a
218.96979860000002	0.43560009999998145	4.450060599999997	0.43560009999998145	15	stim2	n/a	0	n/a
219.40539869999998	0.0144605000000156	4.014460500000015	n/a	15	choice2	n/a	0	n/a
223.41985920000002	1.5	n/a	n/a	15	outcome	n/a	n/a	0
224.91985920000002	5.566771799999987	12.083584299999988	n/a	15	ITI_onset	n/a	n/a	n/a
230.486631	0.48282279999999445	6.5168125	0.48282279999999445	16	stim1	n/a	n/a	n/a
230.9694538	0.01726270000002114	6.033989700000006	n/a	16	choice1	0	n/a	n/a
237.0034435	0.3459407000000065	2.3666067000000037	0.3459407000000065	16	stim2	n/a	1	n/a
237.34938419999997	0.02066599999999744	2.0206659999999976	n/a	16	choice2	n/a	1	n/a
239.37005019999998	1.5	n/a	n/a	16	outcome	n/a	n/a	1
240.87005019999998	7.600172599999991	11.066874699999985	n/a	16	ITI_onset	n/a	n/a	n/a
248.4702228	0.4298718000000226	3.466702099999995	0.4298718000000226	17	stim1	n/a	n/a	n/a
248.9000946	0.020120899999979885	3.0368302999999726	n/a	17	choice1	0	n/a	n/a
251.9369249	0.5741685000000288	3.583333099999989	0.5741685000000288	17	stim2	n/a	1	n/a
252.5110934	0.009164599999960046	3.00916459999996	n/a	17	choice2	n/a	1	n/a
255.52025799999996	1.5	n/a	n/a	17	outcome	n/a	n/a	1
257.02025799999996	3.0668004000000075	7.65019100000005	n/a	17	ITI_onset	n/a	n/a	n/a
260.0870584	0.5599285000000381	4.583390600000042	0.5599285000000381	18	stim1	n/a	n/a	n/a
260.6469869	0.006740899999975227	4.023462100000004	n/a	18	choice1	0	n/a	n/a
264.670449	0.6666569000000018	8.683337099999946	0.6666569000000018	18	stim2	n/a	1	n/a
265.33710590000004	0.016680199999944308	8.016680199999945	n/a	18	choice2	n/a	1	n/a
273.3537861	1.5	n/a	n/a	18	outcome	n/a	n/a	1
274.8537861	2.566841800000053	6.016913000000001	n/a	18	ITI_onset	n/a	n/a	n/a
277.4206279	0.42274609999998936	3.4500711999999476	0.42274609999998936	19	stim1	n/a	n/a	n/a
277.84337400000004	0.010599799999967217	3.0273250999999584	n/a	19	choice1	0	n/a	n/a
280.87069909999997	1.3773342000000413	6.383324200000032	1.3773342000000413	19	stim2	n/a	1	n/a
282.24803330000003	0.005989999999990687	5.005989999999991	n/a	19	choice2	n/a	1	n/a
287.25402330000003	1.5	n/a	n/a	19	outcome	n/a	n/a	1
288.75402330000003	4.566865300000005	11.016920800000022	n/a	19	ITI_onset	n/a	n/a	n/a
293.3208886	0.9211398000000045	6.450055500000016	0.9211398000000045	20	stim1	n/a	n/a	n/a
294.24202840000004	0.01219039999996312	5.528915700000012	n/a	20	choice1	0	n/a	n/a
299.7709441	0.7515111999999499	8.766681099999987	0.7515111999999499	20	stim2	n/a	1	n/a
300.5224553	0.01516990000003716	8.015169900000037	n/a	20	choice2	n/a	1	n/a
308.53762520000004	1.5	n/a	n/a	20	outcome	n/a	n/a	1
310.03762520000004	3.5668800000000047	8.950254599999985	n/a	20	ITI_onset	n/a	n/a	n/a
313.6045052	0.34866749999998137	5.383374599999981	0.34866749999998137	21	stim1	n/a	n/a	n/a
313.9531727	0.01798619999998482	5.034707099999999	n/a	21	choice1	0	n/a	n/a
318.9878798	0.3665807999999961	2.3833273000000044	0.3665807999999961	21	stim2	n/a	1	n/a
319.3544606	0.016746500000008383	2.0167465000000084	n/a	21	choice2	n/a	1	n/a
321.3712071	1.5	n/a	n/a	21	outcome	n/a	n/a	1
322.8712071	8.066834900000016	12.100237000000023	n/a	21	ITI_onset	n/a	n/a	n/a
330.938042	0.9992821999999578	4.033402100000006	0.9992821999999578	22	stim1	n/a	n/a	n/a
331.9373242	0.01745530000003055	3.0341199000000487	n/a	22	choice1	0	n/a	n/a
334.97144410000004	1.593412799999991	8.100063599999993	1.593412799999991	22	stim2	n/a	1	n/a
336.5648569	0.006650800000003073	6.506650800000003	n/a	22	choice2	n/a	1	n/a
343.07150770000004	1.5	n/a	n/a	22	outcome	n/a	n/a	1
344.57150770000004	4.066812099999981	11.100267300000008	n/a	22	ITI_onset	n/a	n/a	n/a
348.6383198	0.5096235999999917	7.033455200000025	0.5096235999999917	23	stim1	n/a	n/a	n/a
349.1479434	0.00706040000001667	6.523831600000034	n/a	23	choice1	0	n/a	n/a
355.671775	0.692531799999997	5.699993900000002	0.692531799999997	23	stim2	n/a	0	n/a
356.3643068	0.007462100000004284	5.007462100000004	n/a	23	choice2	n/a	0	n/a
361.3717689	1.5	n/a	n/a	23	outcome	n/a	n/a	0
362.8717689	5.066830299999972	8.550178599999985	n/a	23	ITI_onset	n/a	n/a	n/a
367.9385992	0.9465795999999973	3.4833483000000123	0.9465795999999973	24	stim1	n/a	n/a	n/a
368.8851788	0.02008189999999013	2.536768700000015	n/a	24	choice1	0	n/a	n/a
371.4219475	1.8092531999999775	4.316715099999972	1.8092531999999775	24	stim2	n/a	0	n/a
373.2312007	0.007461899999994784	2.5074618999999947	n/a	24	choice2	n/a	0	n/a
375.7386626	1.5	n/a	n/a	24	outcome	n/a	n/a	0
377.2386626	7.566827300000004	15.683594500000007	n/a	24	ITI_onset	n/a	n/a	n/a
384.8054899	0.5947471000000368	8.116767200000002	0.5947471000000368	25	stim1	n/a	n/a	n/a
385.400237	0.005263799999956973	7.522020099999965	n/a	25	choice1	0	n/a	n/a
392.92225709999997	0.6566150999999955	5.166697800000024	0.6566150999999955	25	stim2	n/a	1	n/a
393.5788722	0.010082700000028127	4.510082700000028	n/a	25	choice2	n/a	1	n/a
398.08895490000003	1.5	n/a	n/a	25	outcome	n/a	n/a	1
399.58895490000003	1.0	1.0	n/a	25	ITI_onset	n/a	n/a	n/a
