onset	duration	duration2fb	response_time	trial	event	choice1	state	reward
0.0	0.6526689999999981	3.6833886999999996	0.6526689999999981	1	stim1	n/a	n/a	n/a
0.6526689999999995	0.014357700000000478	3.0307197000000015	n/a	1	choice1	1	n/a	n/a
3.683388700000002	1.2702631000000002	4.783344000000001	1.2702631000000002	1	stim2	n/a	1	n/a
4.953651799999999	0.013080900000000837	3.5130809000000007	n/a	1	choice2	n/a	1	n/a
8.466732700000001	1.5	n/a	n/a	1	outcome	n/a	n/a	0
9.966732700000001	7.066829700000002	12.050239800000003	n/a	1	ITI_onset	n/a	n/a	n/a
17.0335624	0.4620923000000039	4.983410100000001	0.4620923000000039	2	stim1	n/a	n/a	n/a
17.495654700000003	0.004597099999999046	4.521317799999997	n/a	2	choice1	0	n/a	n/a
22.0169725	0.7351569000000018	3.750025800000003	0.7351569000000018	2	stim2	n/a	1	n/a
22.7521294	0.014868900000001304	3.0148689000000015	n/a	2	choice2	n/a	1	n/a
25.766998300000004	1.5	n/a	n/a	2	outcome	n/a	n/a	1
27.266998300000004	7.066859299999996	14.866864599999994	n/a	2	ITI_onset	n/a	n/a	n/a
34.3338576	0.7750900000000038	7.800005299999997	0.7750900000000038	3	stim1	n/a	n/a	n/a
35.10894760000001	0.008173799999996845	7.024915299999993	n/a	3	choice1	0	n/a	n/a
42.1338629	0.6531289000000107	6.666711800000004	0.6531289000000107	3	stim2	n/a	1	n/a
42.78699180000001	0.01358289999999397	6.013582899999994	n/a	3	choice2	n/a	1	n/a
48.8005747	1.5	n/a	n/a	3	outcome	n/a	n/a	0
50.3005747	2.5667780000000056	6.700302500000006	n/a	3	ITI_onset	n/a	n/a	n/a
52.86735270000001	0.5996639999999898	4.133524499999999	0.5996639999999898	4	stim1	n/a	n/a	n/a
53.4670167	0.01700089999999909	3.5338605000000096	n/a	4	choice1	1	n/a	n/a
57.000877200000005	0.7179879999999975	4.733241399999999	0.7179879999999975	4	stim2	n/a	1	n/a
57.71886520000001	0.015253400000001421	4.0152534000000015	n/a	4	choice2	n/a	1	n/a
61.7341186	1.5	n/a	n/a	4	outcome	n/a	n/a	0
63.2341186	3.5667930999999955	8.316810799999992	n/a	4	ITI_onset	n/a	n/a	n/a
66.8009117	0.7089554999999964	4.750017699999996	0.7089554999999964	5	stim1	n/a	n/a	n/a
67.5098672	0.02434410000000207	4.041062200000001	n/a	5	choice1	1	n/a	n/a
71.5509294	0.7620296999999991	4.283372000000003	0.7620296999999991	5	stim2	n/a	0	n/a
72.3129591	0.021342300000003887	3.5213423000000037	n/a	5	choice2	n/a	0	n/a
75.8343014	1.5	n/a	n/a	5	outcome	n/a	n/a	1
77.3343014	2.066735799999995	9.417272755999992	n/a	5	ITI_onset	n/a	n/a	n/a
79.40103719999999	0.8258032999999996	7.3505369559999965	0.8258032999999996	6	stim1	n/a	n/a	n/a
80.2268405	0.007518900000010035	6.524733655999997	n/a	6	choice1	1	n/a	n/a
86.75157415599999	0.6083626440000081	2.6162363440000043	0.6083626440000081	6	stim2	n/a	0	n/a
87.3599368	0.00787369999999646	2.0078736999999967	n/a	6	choice2	n/a	0	n/a
89.36781049999999	1.5	n/a	n/a	6	outcome	n/a	n/a	1
90.86781049999999	2.0667488000000014	4.8501119000000035	n/a	6	ITI_onset	n/a	n/a	n/a
92.9345593	0.7512851000000083	2.783363100000002	0.7512851000000083	7	stim1	n/a	n/a	n/a
93.68584440000001	0.015397899999996297	2.032077999999994	n/a	7	choice1	1	n/a	n/a
95.7179224	0.5459228000000003	3.0666919999999953	0.5459228000000003	7	stim2	n/a	0	n/a
96.2638452	0.02076919999999518	2.5207691999999953	n/a	7	choice2	n/a	0	n/a
98.7846144	1.5	n/a	n/a	7	outcome	n/a	n/a	1
100.2846144	2.0667422000000077	7.5668102999999975	n/a	7	ITI_onset	n/a	n/a	n/a
102.3513566	0.47772239999999877	5.500068099999989	0.47772239999999877	8	stim1	n/a	n/a	n/a
102.82907900000001	0.005590199999991455	5.022345699999991	n/a	8	choice1	1	n/a	n/a
107.8514247	0.5223105999999971	2.5333125	0.5223105999999971	8	stim2	n/a	0	n/a
108.37373529999999	0.011001900000002934	2.011001900000003	n/a	8	choice2	n/a	0	n/a
110.38473719999999	1.5	n/a	n/a	8	outcome	n/a	n/a	1
111.88473719999999	4.566787000000011	10.100187600000005	n/a	8	ITI_onset	n/a	n/a	n/a
116.4515242	0.49641440000000875	5.533400599999994	0.49641440000000875	9	stim1	n/a	n/a	n/a
116.94793860000001	0.020255399999994553	5.036986199999985	n/a	9	choice1	1	n/a	n/a
121.98492479999999	0.4118496000000159	3.916814299999998	0.4118496000000159	9	stim2	n/a	0	n/a
122.39677440000003	0.004964699999982258	3.504964699999982	n/a	9	choice2	n/a	0	n/a
125.90173909999999	1.5	n/a	n/a	9	outcome	n/a	n/a	1
127.40173909999999	5.066643600000011	16.6001397	n/a	9	ITI_onset	n/a	n/a	n/a
132.4683827	9.007391000000004	11.53349609999999	9.007391000000004	10	stim1	n/a	n/a	n/a
141.47577370000002	0.009418199999985518	2.5261050999999863	n/a	10	choice1	1	n/a	n/a
144.0018788	0.4404305999999924	3.949972299999994	0.4404305999999924	10	stim2	n/a	0	n/a
144.4423094	0.009541700000001584	3.5095417000000015	n/a	10	choice2	n/a	0	n/a
147.9518511	1.5	n/a	n/a	10	outcome	n/a	n/a	0
149.4518511	3.066824900000007	5.900176399999997	n/a	10	ITI_onset	n/a	n/a	n/a
152.518676	0.8029793000000063	2.83335149999999	0.8029793000000063	11	stim1	n/a	n/a	n/a
153.3216553	0.01368619999999646	2.0303721999999835	n/a	11	choice1	0	n/a	n/a
155.3520275	0.5492732000000251	4.566672500000015	0.5492732000000251	11	stim2	n/a	0	n/a
155.9013007	0.017399299999990035	4.01739929999999	n/a	11	choice2	n/a	0	n/a
159.9187	1.5	n/a	n/a	11	outcome	n/a	n/a	0
161.4187	3.5668011000000117	6.083511399999988	n/a	11	ITI_onset	n/a	n/a	n/a
164.98550110000002	0.48869229999999514	2.516710299999977	0.48869229999999514	12	stim1	n/a	n/a	n/a
165.47419340000002	0.011336599999980535	2.0280179999999817	n/a	12	choice1	1	n/a	n/a
167.5022114	0.9245184000000009	3.4333292000000073	0.9245184000000009	12	stim2	n/a	0	n/a
168.4267298	0.008810800000006567	2.5088108000000067	n/a	12	choice2	n/a	0	n/a
170.9355406	1.5	n/a	n/a	12	outcome	n/a	n/a	1
172.4355406	2.5667435000000114	9.216862300000008	n/a	12	ITI_onset	n/a	n/a	n/a
175.0022841	0.6164357999999774	6.650118799999997	0.6164357999999774	13	stim1	n/a	n/a	n/a
175.61871989999997	0.01691950000001816	6.0336830000000194	n/a	13	choice1	1	n/a	n/a
181.6524029	0.4413730999999971	4.949982300000003	0.4413730999999971	13	stim2	n/a	0	n/a
182.093776	0.00860920000000624	4.508609200000007	n/a	13	choice2	n/a	0	n/a
186.60238520000001	1.5	n/a	n/a	13	outcome	n/a	n/a	0
188.10238520000001	3.0668173999999997	6.416822699999989	n/a	13	ITI_onset	n/a	n/a	n/a
191.1692026	0.8263617999999842	3.3500052999999896	0.8263617999999842	14	stim1	n/a	n/a	n/a
191.9955644	0.006953000000008615	2.5236435000000057	n/a	14	choice1	0	n/a	n/a
194.5192079	1.230523600000015	3.7500329999999957	1.230523600000015	14	stim2	n/a	1	n/a
195.74973150000002	0.019509399999980814	2.519509399999981	n/a	14	choice2	n/a	1	n/a
198.2692409	1.5	n/a	n/a	14	outcome	n/a	n/a	1
199.7692409	7.566834399999992	13.900247300000018	n/a	14	ITI_onset	n/a	n/a	n/a
207.33607529999998	0.8044619999999996	6.333412900000025	0.8044619999999996	15	stim1	n/a	n/a	n/a
208.14053729999998	0.012187100000010104	5.528950900000026	n/a	15	choice1	0	n/a	n/a
213.66948820000002	0.7365981000000029	2.7500095999999905	0.7365981000000029	15	stim2	n/a	1	n/a
214.40608630000003	0.013411499999987427	2.0134114999999873	n/a	15	choice2	n/a	1	n/a
216.41949780000002	1.5	n/a	n/a	15	outcome	n/a	n/a	0
217.91949780000002	2.5667232000000078	6.216774700000009	n/a	15	ITI_onset	n/a	n/a	n/a
220.486221	0.6242508999999845	3.6500515000000013	0.6242508999999845	16	stim1	n/a	n/a	n/a
221.1104719	0.00909309999999823	3.025800600000017	n/a	16	choice1	0	n/a	n/a
224.13627250000002	0.6078006999999925	2.6166704999999784	0.6078006999999925	16	stim2	n/a	1	n/a
224.7440732	0.008869799999985844	2.008869799999986	n/a	16	choice2	n/a	1	n/a
226.752943	1.5	n/a	n/a	16	outcome	n/a	n/a	1
228.252943	3.0667439000000014	8.483494800000015	n/a	16	ITI_onset	n/a	n/a	n/a
231.3196869	0.3873532000000123	5.416750900000014	0.3873532000000123	17	stim1	n/a	n/a	n/a
231.7070401	0.012645900000003166	5.029397700000001	n/a	17	choice1	0	n/a	n/a
236.7364378	0.40755369999998947	2.9166805999999634	0.40755369999998947	17	stim2	n/a	1	n/a
237.1439915	0.009126900000002934	2.509126899999974	n/a	17	choice2	n/a	1	n/a
239.65311839999995	1.5	n/a	n/a	17	outcome	n/a	n/a	0
241.15311839999995	5.566777200000011	11.866861800000013	n/a	17	ITI_onset	n/a	n/a	n/a
246.7198956	0.7737216999999946	6.300084600000002	0.7737216999999946	18	stim1	n/a	n/a	n/a
247.49361729999995	0.009586000000010244	5.526362900000008	n/a	18	choice1	1	n/a	n/a
253.0199802	0.5085189000000245	2.516671900000016	0.5085189000000245	18	stim2	n/a	0	n/a
253.5284991	0.008152999999991152	2.008152999999991	n/a	18	choice2	n/a	0	n/a
255.5366521	1.5	n/a	n/a	18	outcome	n/a	n/a	0
257.03665209999997	4.066774499999999	8.516901400000032	n/a	18	ITI_onset	n/a	n/a	n/a
261.10342660000003	0.4259925999999978	4.450126900000032	0.4259925999999978	19	stim1	n/a	n/a	n/a
261.5294192	0.007314300000027287	4.024134300000035	n/a	19	choice1	0	n/a	n/a
265.5535535	0.3698837999999523	4.883265099999961	0.3698837999999523	19	stim2	n/a	1	n/a
265.92343729999993	0.013381300000008195	4.513381300000008	n/a	19	choice2	n/a	1	n/a
270.43681860000004	1.5	n/a	n/a	19	outcome	n/a	n/a	0
271.93681860000004	2.5667841999999945	7.066832999999984	n/a	19	ITI_onset	n/a	n/a	n/a
274.50360279999995	0.4768009000000311	4.500048799999989	0.4768009000000311	20	stim1	n/a	n/a	n/a
274.9804037	0.00654660000000149	4.023247899999959	n/a	20	choice1	1	n/a	n/a
279.0036516	0.43578140000003623	4.450028000000049	0.43578140000003623	20	stim2	n/a	0	n/a
279.439433	0.014246600000013132	4.014246600000013	n/a	20	choice2	n/a	0	n/a
283.4536796	1.5	n/a	n/a	20	outcome	n/a	n/a	0
284.9536796	2.566777000000002	5.166795199999993	n/a	20	ITI_onset	n/a	n/a	n/a
287.5204566	0.5689339999999502	2.600018199999991	0.5689339999999502	21	stim1	n/a	n/a	n/a
288.0893906	0.014376300000003539	2.0310842000000413	n/a	21	choice1	1	n/a	n/a
290.1204748	1.1097831000000005	7.6166971999999955	1.1097831000000005	21	stim2	n/a	0	n/a
291.23025789999997	0.0069140999999945055	6.506914099999994	n/a	21	choice2	n/a	0	n/a
297.737172	1.5	n/a	n/a	21	outcome	n/a	n/a	0
299.237172	8.566854099999997	11.800230899999965	n/a	21	ITI_onset	n/a	n/a	n/a
307.8040261	1.2023685999999871	3.233376799999969	1.2023685999999871	22	stim1	n/a	n/a	n/a
309.0063947	0.014309000000008383	2.031008199999982	n/a	22	choice1	0	n/a	n/a
311.03740289999996	0.7144356000000261	6.23333150000003	0.7144356000000261	22	stim2	n/a	0	n/a
311.75183849999996	0.018895900000003168	5.518895900000003	n/a	22	choice2	n/a	0	n/a
317.27073440000004	1.5	n/a	n/a	22	outcome	n/a	n/a	0
318.77073440000004	5.566844199999992	10.450236199999985	n/a	22	ITI_onset	n/a	n/a	n/a
324.33757860000003	0.35223869999998714	4.883391999999993	0.35223869999998714	23	stim1	n/a	n/a	n/a
324.68981729999996	0.014420099999988452	4.531153300000005	n/a	23	choice1	0	n/a	n/a
329.2209706	0.9703617000000085	2.983382900000026	0.9703617000000085	23	stim2	n/a	1	n/a
330.1913323	0.013021200000017415	2.0130212000000176	n/a	23	choice2	n/a	1	n/a
332.2043535	1.5	n/a	n/a	23	outcome	n/a	n/a	0
333.7043535	2.5667715999999783	6.100094099999987	n/a	23	ITI_onset	n/a	n/a	n/a
336.27112509999995	0.49663490000000454	3.5333225000000095	0.49663490000000454	24	stim1	n/a	n/a	n/a
336.76775999999995	0.020009000000020025	3.036687600000005	n/a	24	choice1	0	n/a	n/a
339.8044476	0.649727200000023	4.666676800000015	0.649727200000023	24	stim2	n/a	1	n/a
340.45417480000003	0.016949599999992643	4.016949599999992	n/a	24	choice2	n/a	1	n/a
344.4711244	1.5	n/a	n/a	24	outcome	n/a	n/a	1
345.9711244	3.6001108999999705	7.050155899999954	n/a	24	ITI_onset	n/a	n/a	n/a
349.5712353	0.4265469000000157	3.450044999999984	0.4265469000000157	25	stim1	n/a	n/a	n/a
349.99778219999996	0.006841399999975692	3.023498099999968	n/a	25	choice1	0	n/a	n/a
353.02128029999994	0.7388237000000081	5.250039900000033	0.7388237000000081	25	stim2	n/a	1	n/a
353.76010399999996	0.011216200000024401	4.511216200000025	n/a	25	choice2	n/a	1	n/a
358.2713202	1.5	n/a	n/a	25	outcome	n/a	n/a	0
359.7713202	1.0	1.0	n/a	25	ITI_onset	n/a	n/a	n/a
