onset	duration	duration2fb	response_time	trial	event	choice1	state	reward
0.0	0.2746407099999997	3.3166808299999975	0.2746407099999997	1	stim1	n/a	n/a	n/a
0.2746407099999999	0.025582022999999027	3.042040119999998	n/a	1	choice1	1	n/a	n/a
3.3166808299999992	0.24049969399999827	7.2500133940000016	0.24049969399999827	1	stim2	n/a	0	n/a
3.557180523999996	0.009513700000003155	7.009513700000003	n/a	1	choice2	n/a	0	n/a
10.566694223999999	1.5	n/a	n/a	1	outcome	n/a	n/a	1
12.066694223999999	2.566845481	5.983565801999994	n/a	1	ITI_onset	n/a	n/a	n/a
14.633539705	0.3800581230000025	3.4167203209999935	0.3800581230000025	2	stim1	n/a	n/a	n/a
15.013597828000005	0.019971198999999613	3.036662197999991	n/a	2	choice1	1	n/a	n/a
18.050260025999993	0.48292291600000314	5.500002727000006	0.48292291600000314	2	stim2	n/a	1	n/a
18.533182942	0.017079811000003248	5.017079811000003	n/a	2	choice2	n/a	1	n/a
23.550262753000002	1.5	n/a	n/a	2	outcome	n/a	n/a	1
25.050262753000002	2.566814683999997	8.933612462999998	n/a	2	ITI_onset	n/a	n/a	n/a
27.617077436999995	0.3425470840000053	6.3667977790000005	0.3425470840000053	3	stim1	n/a	n/a	n/a
27.959624521000006	0.0074506229999969946	6.024250694999995	n/a	3	choice1	1	n/a	n/a
33.983875216	0.42175723099999596	2.433299039999998	0.42175723099999596	3	stim2	n/a	0	n/a
34.40563244699999	0.011541809000002104	2.011541809000002	n/a	3	choice2	n/a	0	n/a
36.417174255999996	1.5	n/a	n/a	3	outcome	n/a	n/a	0
37.917174255999996	6.566841311000004	10.98359307000001	n/a	3	ITI_onset	n/a	n/a	n/a
44.484015567	0.38660729199999333	4.4167517590000065	0.38660729199999333	4	stim1	n/a	n/a	n/a
44.870622858999994	0.01340759300001082	4.030144467000013	n/a	4	choice1	1	n/a	n/a
48.90076732600001	0.48168333699999494	3.0000232579999864	0.48168333699999494	4	stim2	n/a	1	n/a
49.382450663	0.018339920999991592	2.5183399209999915	n/a	4	choice2	n/a	1	n/a
51.90079058399999	1.5	n/a	n/a	4	outcome	n/a	n/a	1
53.40079058399999	3.066816610000009	6.416814637000003	n/a	4	ITI_onset	n/a	n/a	n/a
56.467607193999996	0.32754799200000706	3.349998026999994	0.32754799200000706	5	stim1	n/a	n/a	n/a
56.795155186	0.005817420999985189	3.022450034999987	n/a	5	choice1	1	n/a	n/a
59.817605220999994	0.4485743400000065	4.966675905000011	0.4485743400000065	5	stim2	n/a	0	n/a
60.266179561	0.018101565000004486	4.518101565000005	n/a	5	choice2	n/a	0	n/a
64.784281126	1.5	n/a	n/a	5	outcome	n/a	n/a	0
66.284281126	5.566822544999988	7.850219861999998	n/a	5	ITI_onset	n/a	n/a	n/a
71.85110367099999	0.256979605000015	2.28339731700001	0.256979605000015	6	stim1	n/a	n/a	n/a
72.108083276	0.009728636999992886	2.026417711999995	n/a	6	choice1	1	n/a	n/a
74.134500988	0.5001615239999956	5.516741846999983	0.5001615239999956	6	stim2	n/a	0	n/a
74.63466251199999	0.016580322999987403	5.016580322999987	n/a	6	choice2	n/a	0	n/a
79.65124283499999	1.5	n/a	n/a	6	outcome	n/a	n/a	0
81.15124283499999	6.066827677000023	12.350252904000008	n/a	6	ITI_onset	n/a	n/a	n/a
87.21807051200001	0.26247365799998806	6.283425226999985	0.26247365799998806	7	stim1	n/a	n/a	n/a
87.48054417	0.004192880000002333	6.0209515689999975	n/a	7	choice1	1	n/a	n/a
93.50149573899999	0.3991522490000061	5.416677012	0.3991522490000061	7	stim2	n/a	0	n/a
93.900647988	0.017524762999993983	5.017524762999994	n/a	7	choice2	n/a	0	n/a
98.91817275099999	1.5	n/a	n/a	7	outcome	n/a	n/a	1
100.41817275099999	6.566885582000017	14.85034962599998	n/a	7	ITI_onset	n/a	n/a	n/a
106.98505833300001	0.25456075999997846	8.283464043999963	0.25456075999997846	8	stim1	n/a	n/a	n/a
107.23961909299999	0.012105777999997371	8.028903283999986	n/a	8	choice1	1	n/a	n/a
115.26852237699997	0.31509799400001065	4.833355469000031	0.31509799400001065	8	stim2	n/a	0	n/a
115.58362037099998	0.01825747500002035	4.51825747500002	n/a	8	choice2	n/a	0	n/a
120.101877846	1.5	n/a	n/a	8	outcome	n/a	n/a	0
121.601877846	4.066766242999991	11.50026289699998	n/a	8	ITI_onset	n/a	n/a	n/a
125.66864408899998	0.4034112150000001	7.433496653999987	0.4034112150000001	9	stim1	n/a	n/a	n/a
126.07205530399999	0.013375511999998707	7.030085438999988	n/a	9	choice1	1	n/a	n/a
133.102140743	0.2939683800000057	2.299997851000022	0.2939683800000057	9	stim2	n/a	0	n/a
133.396109123	0.006029471000016201	2.006029471000016	n/a	9	choice2	n/a	0	n/a
135.402138594	1.5	n/a	n/a	9	outcome	n/a	n/a	1
136.902138594	3.0668356970000024	6.50017130799999	n/a	9	ITI_onset	n/a	n/a	n/a
139.96897429100002	0.40517530399997487	3.4333356109999875	0.40517530399997487	10	stim1	n/a	n/a	n/a
140.374149595	0.011455192000023089	3.0281603070000127	n/a	10	choice1	1	n/a	n/a
143.402309902	0.3471932559999987	2.8666935179999853	0.3471932559999987	10	stim2	n/a	0	n/a
143.749503158	0.019500261999986834	2.519500261999987	n/a	10	choice2	n/a	0	n/a
146.26900342	1.5	n/a	n/a	10	outcome	n/a	n/a	0
147.76900342	4.066781962000038	8.916888902000006	n/a	10	ITI_onset	n/a	n/a	n/a
151.83578538200004	0.3188892299999716	4.850106939999969	0.3188892299999716	11	stim1	n/a	n/a	n/a
152.154674612	0.014460465000011026	4.531217709999997	n/a	11	choice1	1	n/a	n/a
156.685892322	0.5523024110000115	5.56668171200002	0.5523024110000115	11	stim2	n/a	1	n/a
157.238194733	0.014379301000008126	5.014379301000008	n/a	11	choice2	n/a	1	n/a
162.25257403400002	1.5	n/a	n/a	11	outcome	n/a	n/a	0
163.75257403400002	2.5667954369999935	6.0835023159999695	n/a	11	ITI_onset	n/a	n/a	n/a
166.31936947100002	0.48730699300000563	3.5167068789999756	0.48730699300000563	12	stim1	n/a	n/a	n/a
166.80667646400002	0.012688033999991603	3.02939988599997	n/a	12	choice1	1	n/a	n/a
169.83607634999998	0.4926169060000393	6.000010426000022	0.4926169060000393	12	stim2	n/a	1	n/a
170.32869325600004	0.0073935199999832545	5.507393519999983	n/a	12	choice2	n/a	1	n/a
175.836086776	1.5	n/a	n/a	12	outcome	n/a	n/a	1
177.336086776	4.066861520999985	7.60025330500002	n/a	12	ITI_onset	n/a	n/a	n/a
181.402948297	0.5026220740000136	3.533391784000036	0.5026220740000136	13	stim1	n/a	n/a	n/a
181.905570371	0.014007492000004276	3.030769710000022	n/a	13	choice1	1	n/a	n/a
184.93634008100003	0.4026730489999754	4.916587508999975	0.4026730489999754	13	stim2	n/a	1	n/a
185.33901313	0.013914459999999964	4.51391446	n/a	13	choice2	n/a	1	n/a
189.85292759	1.5	n/a	n/a	13	outcome	n/a	n/a	0
191.35292759	6.566973320999998	13.383741248999984	n/a	13	ITI_onset	n/a	n/a	n/a
197.919900911	0.2931756779999705	6.816767927999987	0.2931756779999705	14	stim1	n/a	n/a	n/a
198.21307658899997	0.006817040000023553	6.523592250000016	n/a	14	choice1	1	n/a	n/a
204.736668839	0.42199558600000453	7.933337535000028	0.42199558600000453	14	stim2	n/a	1	n/a
205.15866442499998	0.011341949000023305	7.511341949000023	n/a	14	choice2	n/a	1	n/a
212.67000637400002	1.5	n/a	n/a	14	outcome	n/a	n/a	0
214.17000637400002	3.566867135999986	6.4169217849999844	n/a	14	ITI_onset	n/a	n/a	n/a
217.73687351	0.3176326490000065	2.850054648999998	0.3176326490000065	15	stim1	n/a	n/a	n/a
218.054506159	0.015684965000022203	2.5324219999999915	n/a	15	choice1	0	n/a	n/a
220.586928159	0.5275422819999803	6.533324094000011	0.5275422819999803	15	stim2	n/a	1	n/a
221.11447044099998	0.005781812000030186	6.005781812000031	n/a	15	choice2	n/a	1	n/a
227.12025225300002	1.5	n/a	n/a	15	outcome	n/a	n/a	0
228.62025225300002	2.5668711460000195	5.283551462999982	n/a	15	ITI_onset	n/a	n/a	n/a
231.18712339900003	0.6824257369999832	2.716680316999962	0.6824257369999832	16	stim1	n/a	n/a	n/a
231.86954913600002	0.01755555999997887	2.034254579999979	n/a	16	choice1	0	n/a	n/a
233.903803716	0.3214068820000102	3.3333554680000232	0.3214068820000102	16	stim2	n/a	1	n/a
234.22521059800002	0.011948586000013165	3.0119485860000133	n/a	16	choice2	n/a	1	n/a
237.23715918400003	1.5	n/a	n/a	16	outcome	n/a	n/a	0
238.73715918400003	5.56687050400002	7.800189370000007	n/a	16	ITI_onset	n/a	n/a	n/a
244.30402968800004	0.21157202899997354	2.233318865999987	0.21157202899997354	17	stim1	n/a	n/a	n/a
244.515601717	0.005023435999988579	2.021746837000013	n/a	17	choice1	1	n/a	n/a
246.53734855400003	0.3490705890000099	4.8666322439999785	0.3490705890000099	17	stim2	n/a	0	n/a
246.88641914300004	0.017561654999968597	4.517561654999969	n/a	17	choice2	n/a	0	n/a
251.403980798	1.5	n/a	n/a	17	outcome	n/a	n/a	1
252.903980798	2.066872428999981	9.083586206000007	n/a	17	ITI_onset	n/a	n/a	n/a
254.970853227	0.49422861500002907	7.016713777000026	0.49422861500002907	18	stim1	n/a	n/a	n/a
255.465081842	0.005724388000031467	6.522485161999997	n/a	18	choice1	1	n/a	n/a
261.98756700399997	0.35704443900001936	3.3667021789999563	0.35704443900001936	18	stim2	n/a	0	n/a
262.344611443	0.009657739999936894	3.0096577399999367	n/a	18	choice2	n/a	0	n/a
265.35426918299993	1.5	n/a	n/a	18	outcome	n/a	n/a	1
266.85426918299993	5.56681211800006	8.483580078000028	n/a	18	ITI_onset	n/a	n/a	n/a
272.421081301	0.3889767349999747	2.9167679599999685	0.3889767349999747	19	stim1	n/a	n/a	n/a
272.810058036	0.01105130300001474	2.5277912249999934	n/a	19	choice1	1	n/a	n/a
275.337849261	0.3621512840000214	2.8832860310000252	0.3621512840000214	19	stim2	n/a	0	n/a
275.70000054499997	0.0211347470000037	2.5211347470000036	n/a	19	choice2	n/a	0	n/a
278.221135292	1.5	n/a	n/a	19	outcome	n/a	n/a	1
279.721135292	4.566861040999997	7.883552136999962	n/a	19	ITI_onset	n/a	n/a	n/a
284.28799633299997	0.2805963960000081	3.316691095999966	0.2805963960000081	20	stim1	n/a	n/a	n/a
284.568592729	0.01937996099999873	3.036094699999958	n/a	20	choice1	1	n/a	n/a
287.60468742899997	0.3168354560000007	6.833337503000046	0.3168354560000007	20	stim2	n/a	0	n/a
287.92152288499994	0.01650204700004542	6.516502047000046	n/a	20	choice2	n/a	0	n/a
294.438024932	1.5	n/a	n/a	20	outcome	n/a	n/a	0
295.938024932	4.566858794999949	9.333615317999968	n/a	20	ITI_onset	n/a	n/a	n/a
300.50488372699994	0.2341449300000677	4.766756523000018	0.2341449300000677	21	stim1	n/a	n/a	n/a
300.739028657	0.015850498999934643	4.532611592999951	n/a	21	choice1	1	n/a	n/a
305.27164024999996	0.21086434000002918	3.7166692490000277	0.21086434000002918	21	stim2	n/a	0	n/a
305.48250459	0.005804908999998588	3.5058049089999987	n/a	21	choice2	n/a	0	n/a
308.988309499	1.5	n/a	n/a	21	outcome	n/a	n/a	1
310.488309499	2.6001487239999697	5.016947640999977	n/a	21	ITI_onset	n/a	n/a	n/a
313.088458223	0.3808857920000446	2.4167989170000075	0.3808857920000446	22	stim1	n/a	n/a	n/a
313.469344015	0.019095088000001852	2.0359131249999627	n/a	22	choice1	1	n/a	n/a
315.50525713999997	0.2817208070000051	2.299891345000011	0.2817208070000051	22	stim2	n/a	0	n/a
315.78697794699997	0.018170538000005763	2.018170538000006	n/a	22	choice2	n/a	0	n/a
317.80514848499996	1.5	n/a	n/a	22	outcome	n/a	n/a	1
319.30514848499996	3.5668098720000128	5.850177675999992	n/a	22	ITI_onset	n/a	n/a	n/a
322.871958357	0.2564785139999585	2.2833678039999796	0.2564785139999585	23	stim1	n/a	n/a	n/a
323.12843687099996	0.010177117999992333	2.026889290000021	n/a	23	choice1	1	n/a	n/a
325.155326161	0.44012089099996954	5.449981376999989	0.44012089099996954	23	stim2	n/a	1	n/a
325.59544705199994	0.009860486000019592	5.0098604860000195	n/a	23	choice2	n/a	1	n/a
330.605307538	1.5	n/a	n/a	23	outcome	n/a	n/a	0
332.105307538	5.06688863000006	9.316924480000045	n/a	23	ITI_onset	n/a	n/a	n/a
337.172196168	0.2150989239999326	4.2500358499999855	0.2150989239999326	24	stim1	n/a	n/a	n/a
337.38729509199993	0.018200371999992058	4.034936926000053	n/a	24	choice1	0	n/a	n/a
341.422232018	0.2901267769999686	7.300014531999943	0.2901267769999686	24	stim2	n/a	1	n/a
341.712358795	0.009887754999974277	7.0098877549999745	n/a	24	choice2	n/a	1	n/a
348.72224654999997	1.5	n/a	n/a	24	outcome	n/a	n/a	0
350.22224654999997	3.066847887000011	6.6168924950000365	n/a	24	ITI_onset	n/a	n/a	n/a
353.28909443699996	0.5215079999999725	3.5500446080000256	0.5215079999999725	25	stim1	n/a	n/a	n/a
353.81060243699994	0.011844646000012289	3.0285366080000533	n/a	25	choice1	1	n/a	n/a
356.83913904499997	0.28837487900000996	6.30002094800002	0.28837487900000996	25	stim2	n/a	0	n/a
357.127513924	0.011646069000009448	6.011646069000009	n/a	25	choice2	n/a	0	n/a
363.139159993	1.5	n/a	n/a	25	outcome	n/a	n/a	1
364.639159993	1.0	1.0	n/a	25	ITI_onset	n/a	n/a	n/a
