onset	duration	duration2fb	response_time	trial	event	choice1	state	reward
0.0	1.5762201999999998	5.116725600000001	1.5762201999999998	1	stim1	n/a	n/a	n/a
1.576220199999998	0.02380359999999928	3.540505400000002	n/a	1	choice1	0	n/a	n/a
5.116725600000006	0.7383525999999984	4.250073499999998	0.7383525999999984	1	stim2	n/a	1	n/a
5.855078199999998	0.011720900000000256	3.5117209000000003	n/a	1	choice2	n/a	1	n/a
9.366799099999998	1.5	n/a	n/a	1	outcome	n/a	n/a	1
10.866799099999998	2.566714200000002	4.8834176000000005	n/a	1	ITI_onset	n/a	n/a	n/a
13.433513300000005	0.28948519999999556	2.3167033999999984	0.28948519999999556	2	stim1	n/a	n/a	n/a
13.7229985	0.010509600000004867	2.027218200000003	n/a	2	choice1	0	n/a	n/a
15.7502167	0.6218663999999989	5.1333629999999975	0.6218663999999989	2	stim2	n/a	1	n/a
16.3720831	0.01149659999999858	4.511496599999998	n/a	2	choice2	n/a	1	n/a
20.883579700000002	1.5	n/a	n/a	2	outcome	n/a	n/a	0
22.383579700000002	4.566796399999999	7.883582600000001	n/a	2	ITI_onset	n/a	n/a	n/a
26.950376099999996	0.28677730000000157	3.3167862000000023	0.28677730000000157	3	stim1	n/a	n/a	n/a
27.2371534	0.013270900000003166	3.030008900000001	n/a	3	choice1	0	n/a	n/a
30.2671623	0.34908720000000176	4.366724499999997	0.34908720000000176	3	stim2	n/a	1	n/a
30.616249500000006	0.017637299999994867	4.017637299999995	n/a	3	choice2	n/a	1	n/a
34.6338868	1.5	n/a	n/a	3	outcome	n/a	n/a	1
36.1338868	6.566691200000001	10.916768800000005	n/a	3	ITI_onset	n/a	n/a	n/a
42.70057799999999	0.32456110000000626	4.350077600000004	0.32456110000000626	4	stim1	n/a	n/a	n/a
43.025139100000004	0.008831099999995786	4.0255164999999975	n/a	4	choice1	1	n/a	n/a
47.0506556	0.30539530000000376	3.316680599999992	0.30539530000000376	4	stim2	n/a	0	n/a
47.3560509	0.011285299999988637	3.011285299999989	n/a	4	choice2	n/a	0	n/a
50.3673362	1.5	n/a	n/a	4	outcome	n/a	n/a	0
51.8673362	2.566795900000012	6.95016290000001	n/a	4	ITI_onset	n/a	n/a	n/a
54.4341321	0.3470162999999884	4.383366999999998	0.3470162999999884	5	stim1	n/a	n/a	n/a
54.78114839999999	0.019660100000008243	4.03635070000001	n/a	5	choice1	0	n/a	n/a
58.817499100000006	0.26513709999999263	3.7833381999999984	0.26513709999999263	5	stim2	n/a	1	n/a
59.082636199999996	0.01820110000000568	3.5182011000000055	n/a	5	choice2	n/a	1	n/a
62.600837299999995	1.5	n/a	n/a	5	outcome	n/a	n/a	1
64.1008373	3.566781999999992	7.966837299999999	n/a	5	ITI_onset	n/a	n/a	n/a
67.6676193	0.37347720000000845	4.400055300000007	0.37347720000000845	6	stim1	n/a	n/a	n/a
68.0410965	0.009896399999997812	4.026578099999999	n/a	6	choice1	1	n/a	n/a
72.0676746	0.26219370000000347	4.266686399999991	0.26219370000000347	6	stim2	n/a	0	n/a
72.3298683	0.004492699999987962	4.004492699999988	n/a	6	choice2	n/a	0	n/a
76.33436099999999	1.5	n/a	n/a	6	outcome	n/a	n/a	0
77.83436099999999	3.0667644	9.35021100000001	n/a	6	ITI_onset	n/a	n/a	n/a
80.9011254	0.2598338000000076	6.28344660000001	0.2598338000000076	7	stim1	n/a	n/a	n/a
81.1609592	0.006921900000001187	6.023612800000002	n/a	7	choice1	0	n/a	n/a
87.184572	0.21897099999999045	5.733356499999994	0.21897099999999045	7	stim2	n/a	1	n/a
87.40354299999998	0.014385500000003958	5.514385500000004	n/a	7	choice2	n/a	1	n/a
92.9179285	1.5	n/a	n/a	7	outcome	n/a	n/a	1
94.4179285	8.566877999999997	11.95039069999999	n/a	7	ITI_onset	n/a	n/a	n/a
102.9848065	0.34844169999999575	3.383512699999992	0.34844169999999575	8	stim1	n/a	n/a	n/a
103.3332482	0.018235700000019277	3.0350709999999963	n/a	8	choice1	1	n/a	n/a
106.36831919999999	0.0927160000000149	8.099891300000017	0.0927160000000149	8	stim2	n/a	0	n/a
106.46103520000001	0.007175300000002608	8.007175300000002	n/a	8	choice2	n/a	0	n/a
114.46821050000001	1.5	n/a	n/a	8	outcome	n/a	n/a	0
115.96821050000001	7.566900200000004	11.450279500000004	n/a	8	ITI_onset	n/a	n/a	n/a
123.5351107	0.35142559999998774	3.8833793000000005	0.35142559999998774	9	stim1	n/a	n/a	n/a
123.8865363	0.015230700000014622	3.5319537000000127	n/a	9	choice1	0	n/a	n/a
127.41849	0.7885121999999974	3.7999671999999847	0.7885121999999974	9	stim2	n/a	0	n/a
128.2070022	0.011454999999987194	3.0114549999999873	n/a	9	choice2	n/a	0	n/a
131.21845720000002	1.5	n/a	n/a	9	outcome	n/a	n/a	0
132.71845720000002	3.0667658999999987	8.933651400000002	n/a	9	ITI_onset	n/a	n/a	n/a
135.7852231	0.34278040000001786	5.866885500000004	0.34278040000001786	10	stim1	n/a	n/a	n/a
136.12800350000003	0.0073132999999797905	5.524105099999987	n/a	10	choice1	1	n/a	n/a
141.65210860000002	0.5029547000000021	4.516579400000017	0.5029547000000021	10	stim2	n/a	0	n/a
142.15506330000002	0.013624700000014854	4.0136247000000145	n/a	10	choice2	n/a	0	n/a
146.16868800000003	1.5	n/a	n/a	10	outcome	n/a	n/a	0
147.66868800000003	3.066789899999974	10.133618199999997	n/a	10	ITI_onset	n/a	n/a	n/a
150.7354779	2.0353895000000195	7.066828300000023	2.0353895000000195	11	stim1	n/a	n/a	n/a
152.77086740000001	0.014634699999995063	5.031438800000004	n/a	11	choice1	1	n/a	n/a
157.80230620000003	0.37815789999999105	3.9000401999999887	0.37815789999999105	11	stim2	n/a	0	n/a
158.18046410000002	0.021882299999997485	3.5218822999999975	n/a	11	choice2	n/a	0	n/a
161.7023464	1.5	n/a	n/a	11	outcome	n/a	n/a	0
163.2023464	6.5667599000000045	13.216877199999988	n/a	11	ITI_onset	n/a	n/a	n/a
169.7691063	1.1148638999999967	6.650117299999984	1.1148638999999967	12	stim1	n/a	n/a	n/a
170.88397020000002	0.018520199999999022	5.535253399999987	n/a	12	choice1	1	n/a	n/a
176.4192236	0.31906690000000526	2.3333000000000172	0.31906690000000526	12	stim2	n/a	0	n/a
176.7382905	0.0142331000000122	2.014233100000012	n/a	12	choice2	n/a	0	n/a
178.75252360000002	1.5	n/a	n/a	12	outcome	n/a	n/a	0
180.25252360000002	6.567015400000004	8.900200400000001	n/a	12	ITI_onset	n/a	n/a	n/a
186.81953900000002	0.30282649999999556	2.3331849999999976	0.30282649999999556	13	stim1	n/a	n/a	n/a
187.12236550000003	0.013650300000008428	2.030358500000002	n/a	13	choice1	0	n/a	n/a
189.152724	0.3531798999999883	7.366657000000006	0.3531798999999883	13	stim2	n/a	1	n/a
189.5059039	0.013477100000018253	7.013477100000018	n/a	13	choice2	n/a	1	n/a
196.519381	1.5	n/a	n/a	13	outcome	n/a	n/a	1
198.019381	3.0668662999999943	6.500181599999982	n/a	13	ITI_onset	n/a	n/a	n/a
201.08624730000003	0.40961960000000547	3.4333152999999874	0.40961960000000547	14	stim1	n/a	n/a	n/a
201.4958669	0.006992299999983516	3.023695699999982	n/a	14	choice1	0	n/a	n/a
204.5195626	0.33626089999999387	2.350034799999994	0.33626089999999387	14	stim2	n/a	1	n/a
204.85582349999999	0.01377390000000014	2.0137739000000003	n/a	14	choice2	n/a	1	n/a
206.8695974	1.5	n/a	n/a	14	outcome	n/a	n/a	1
208.3695974	3.0667774000000207	6.050140100000019	n/a	14	ITI_onset	n/a	n/a	n/a
211.4363748	0.4526603999999934	2.983362699999998	0.4526603999999934	15	stim1	n/a	n/a	n/a
211.88903520000002	0.013994799999985845	2.5307023000000046	n/a	15	choice1	0	n/a	n/a
214.41973750000002	0.28568109999998703	3.3000248999999893	0.28568109999998703	15	stim2	n/a	1	n/a
214.7054186	0.014343800000002375	3.0143438000000025	n/a	15	choice2	n/a	1	n/a
217.7197624	1.5	n/a	n/a	15	outcome	n/a	n/a	1
219.2197624	2.566745200000005	6.866818900000013	n/a	15	ITI_onset	n/a	n/a	n/a
221.78650760000002	0.27645410000000264	4.300073700000008	0.27645410000000264	16	stim1	n/a	n/a	n/a
222.06296170000002	0.006854699999996228	4.023619600000005	n/a	16	choice1	0	n/a	n/a
226.08658130000003	0.2983181999999797	5.316709499999968	0.2983181999999797	16	stim2	n/a	1	n/a
226.38489950000002	0.01839130000001751	5.018391299999989	n/a	16	choice2	n/a	1	n/a
231.40329079999998	1.5	n/a	n/a	16	outcome	n/a	n/a	1
232.90329079999998	8.066835300000035	12.950220499999995	n/a	16	ITI_onset	n/a	n/a	n/a
240.97012610000002	0.3596706000000122	4.88338519999996	0.3596706000000122	17	stim1	n/a	n/a	n/a
241.32979670000003	0.00695529999997234	4.523714599999948	n/a	17	choice1	0	n/a	n/a
245.85351129999998	0.533160200000042	4.0500388000000385	0.533160200000042	17	stim2	n/a	0	n/a
246.38667150000003	0.016878599999996368	3.5168785999999965	n/a	17	choice2	n/a	0	n/a
249.90355010000002	1.5	n/a	n/a	17	outcome	n/a	n/a	0
251.40355010000002	7.566814699999988	12.616897400000017	n/a	17	ITI_onset	n/a	n/a	n/a
258.9703648	0.01832660000002943	5.050082700000028	0.01832660000002943	18	stim1	n/a	n/a	n/a
258.98869140000005	0.015007499999948777	5.031756099999999	n/a	18	choice1	1	n/a	n/a
264.02044750000005	0.6353692999999621	3.6500024999999443	0.6353692999999621	18	stim2	n/a	1	n/a
264.6558168	0.014633199999982026	3.014633199999982	n/a	18	choice2	n/a	1	n/a
267.67044999999996	1.5	n/a	n/a	18	outcome	n/a	n/a	0
269.17044999999996	5.566833400000003	11.333576500000024	n/a	18	ITI_onset	n/a	n/a	n/a
274.73728339999997	2.2383418999999996	5.7667431000000215	2.2383418999999996	19	stim1	n/a	n/a	n/a
276.9756253	0.011660499999998138	3.528401200000022	n/a	19	choice1	0	n/a	n/a
280.5040265	0.3475163000000175	2.3666728000000004	0.3475163000000175	19	stim2	n/a	0	n/a
280.8515428	0.01915649999998277	2.019156499999983	n/a	19	choice2	n/a	0	n/a
282.8706993	1.5	n/a	n/a	19	outcome	n/a	n/a	0
284.3706993	3.066752299999993	11.683527899999987	n/a	19	ITI_onset	n/a	n/a	n/a
287.4374516	0.5892537000000011	8.616775599999993	0.5892537000000011	20	stim1	n/a	n/a	n/a
288.0267053	0.010739200000010897	8.027521899999993	n/a	20	choice1	1	n/a	n/a
296.0542272	0.4379745000000112	4.949989700000034	0.4379745000000112	20	stim2	n/a	0	n/a
296.4922017	0.01201520000002347	4.5120152000000235	n/a	20	choice2	n/a	0	n/a
301.0042169	1.5	n/a	n/a	20	outcome	n/a	n/a	1
302.5042169	7.56687189999997	10.050246599999955	n/a	20	ITI_onset	n/a	n/a	n/a
310.0710888	0.45704509999998844	2.483374699999986	0.45704509999998844	21	stim1	n/a	n/a	n/a
310.5281339	0.009658600000024307	2.0263295999999973	n/a	21	choice1	1	n/a	n/a
312.5544635	0.35322550000000047	4.8666944000000365	0.35322550000000047	21	stim2	n/a	0	n/a
312.907689	0.013468900000036229	4.513468900000036	n/a	21	choice2	n/a	0	n/a
317.4211579	1.5	n/a	n/a	21	outcome	n/a	n/a	1
318.9211579	4.600196999999985	9.73352840000001	n/a	21	ITI_onset	n/a	n/a	n/a
323.5213549	1.1088659000000334	5.133331400000024	1.1088659000000334	22	stim1	n/a	n/a	n/a
324.6302208	0.0077589999999618155	4.024465499999991	n/a	22	choice1	1	n/a	n/a
328.65468630000004	0.505999599999981	4.516715999999957	0.505999599999981	22	stim2	n/a	0	n/a
329.16068590000003	0.010716399999975692	4.010716399999976	n/a	22	choice2	n/a	0	n/a
333.1714023	1.5	n/a	n/a	22	outcome	n/a	n/a	0
334.6714023	4.066783200000005	7.050175700000022	n/a	22	ITI_onset	n/a	n/a	n/a
338.7381855	0.9603894999999902	2.9833925000000163	0.9603894999999902	23	stim1	n/a	n/a	n/a
339.698575	0.006358900000050198	2.023003000000026	n/a	23	choice1	0	n/a	n/a
341.721578	0.3639474000000046	3.3833041000000086	0.3639474000000046	23	stim2	n/a	1	n/a
342.0855254	0.01935670000000391	3.019356700000004	n/a	23	choice2	n/a	1	n/a
345.1048821	1.5	n/a	n/a	23	outcome	n/a	n/a	0
346.6048821	5.066839600000007	8.43353330000001	n/a	23	ITI_onset	n/a	n/a	n/a
351.67172170000003	0.3458938999999664	3.3666937000000035	0.3458938999999664	24	stim1	n/a	n/a	n/a
352.0176156	0.004084700000006706	3.020799800000037	n/a	24	choice1	1	n/a	n/a
355.0384154	0.29913159999996425	5.31667929999996	0.29913159999996425	24	stim2	n/a	0	n/a
355.337547	0.01754769999999553	5.017547699999995	n/a	24	choice2	n/a	0	n/a
360.3550947	1.5	n/a	n/a	24	outcome	n/a	n/a	1
361.8550947	2.56684090000001	5.000153200000001	n/a	24	ITI_onset	n/a	n/a	n/a
364.4219356	0.40067340000002877	2.4333122999999905	0.40067340000002877	25	stim1	n/a	n/a	n/a
364.822609	0.015936199999996462	2.0326388999999616	n/a	25	choice1	1	n/a	n/a
366.8552479	0.4253446000000113	5.933334100000036	0.4253446000000113	25	stim2	n/a	0	n/a
367.2805925	0.007989500000025145	5.507989500000025	n/a	25	choice2	n/a	0	n/a
372.788582	1.5	n/a	n/a	25	outcome	n/a	n/a	0
374.288582	1.0	1.0	n/a	25	ITI_onset	n/a	n/a	n/a
