onset	duration	duration2fb	response_time	trial	event	choice1	state	reward
0.0	1.9410881999999983	5.483356800000009	1.9410881999999983	1	stim1	n/a	n/a	n/a
1.9410881999999958	0.025602000000006227	3.5422686000000105	n/a	1	choice1	1	n/a	n/a
5.48335680000001	2.2326449999999896	7.750489289999983	2.2326449999999896	1	stim2	n/a	0	n/a
7.716001800000001	0.017844289999993636	5.517844289999994	n/a	1	choice2	n/a	0	n/a
13.233846089999986	1.5	n/a	n/a	1	outcome	n/a	n/a	1
14.733846089999986	2.0663511100000034	9.099782510000004	n/a	1	ITI_onset	n/a	n/a	n/a
16.8001972	1.5027251000000106	7.033431400000001	1.5027251000000106	2	stim1	n/a	n/a	n/a
18.302922300000006	0.01397609999999986	5.5307062999999905	n/a	2	choice1	1	n/a	n/a
23.833628599999997	0.9862255000000004	3.5000452000000077	0.9862255000000004	2	stim2	n/a	0	n/a
24.8198541	0.013819700000007288	2.513819700000007	n/a	2	choice2	n/a	0	n/a
27.3336738	1.5	n/a	n/a	2	outcome	n/a	n/a	1
28.8336738	2.5668092000000033	9.000134099999995	n/a	2	ITI_onset	n/a	n/a	n/a
31.40048300000001	1.3784326999999903	6.433324899999993	1.3784326999999903	3	stim1	n/a	n/a	n/a
32.7789157	0.03831089999999676	5.054892200000002	n/a	3	choice1	0	n/a	n/a
37.8338079	10.899626600000003	14.416817500000004	10.899626600000003	3	stim2	n/a	1	n/a
48.7334345	0.01719090000000142	3.5171909000000015	n/a	3	choice2	n/a	1	n/a
52.250625400000004	1.5	n/a	n/a	3	outcome	n/a	n/a	1
53.750625400000004	7.083482199999999	11.833550600000002	n/a	3	ITI_onset	n/a	n/a	n/a
60.834107599999996	1.7177786999999953	4.7500684000000035	1.7177786999999953	4	stim1	n/a	n/a	n/a
62.55188629999999	0.015615499999999883	3.0322897000000086	n/a	4	choice1	1	n/a	n/a
65.584176	1.7286359999999985	3.7333534999999975	1.7286359999999985	4	stim2	n/a	0	n/a
67.31281200000001	0.0047174999999988355	2.004717499999999	n/a	4	choice2	n/a	0	n/a
69.3175295	1.5	n/a	n/a	4	outcome	n/a	n/a	0
70.8175295	3.066756999999983	9.566848599999968	n/a	4	ITI_onset	n/a	n/a	n/a
73.8842865	1.4709990000000106	6.500091599999985	1.4709990000000106	5	stim1	n/a	n/a	n/a
75.35528550000001	0.012357399999978952	5.0290925999999745	n/a	5	choice1	0	n/a	n/a
80.38437809999999	15.517318400000018	17.533525100000027	15.517318400000018	5	stim2	n/a	1	n/a
95.90169650000001	0.016206700000009733	2.01620670000001	n/a	5	choice2	n/a	1	n/a
97.91790320000001	1.5	n/a	n/a	5	outcome	n/a	n/a	0
99.41790320000001	2.5667690999999757	7.73348119999998	n/a	5	ITI_onset	n/a	n/a	n/a
101.9846723	1.6416344000000098	5.166712100000004	1.6416344000000098	6	stim1	n/a	n/a	n/a
103.62630669999999	0.00837640000000829	3.5250776999999944	n/a	6	choice1	1	n/a	n/a
107.15138439999998	0.591215200000006	5.600000400000019	0.591215200000006	6	stim2	n/a	1	n/a
107.7425996	0.008785200000012991	5.008785200000013	n/a	6	choice2	n/a	1	n/a
112.75138480000001	1.5	n/a	n/a	6	outcome	n/a	n/a	0
114.25138480000001	6.566842799999984	10.9169001	n/a	6	ITI_onset	n/a	n/a	n/a
120.8182276	2.312376400000008	4.350057300000015	2.312376400000008	7	stim1	n/a	n/a	n/a
123.130604	0.020969500000006518	2.0376809000000065	n/a	7	choice1	1	n/a	n/a
125.1682849	9.86128039999999	12.866781799999996	9.86128039999999	7	stim2	n/a	1	n/a
135.0295653	0.0055014000000082885	3.0055014000000084	n/a	7	choice2	n/a	1	n/a
138.03506670000002	1.5	n/a	n/a	7	outcome	n/a	n/a	1
139.53506670000002	4.566820399999997	10.483546299999988	n/a	7	ITI_onset	n/a	n/a	n/a
144.1018871	1.8882642999999808	5.9167258999999905	1.8882642999999808	8	stim1	n/a	n/a	n/a
145.99015139999997	0.011738500000006752	4.02846160000001	n/a	8	choice1	1	n/a	n/a
150.018613	1.9001536999999953	3.916697899999999	1.9001536999999953	8	stim2	n/a	0	n/a
151.9187667	0.016544200000003912	2.016544200000004	n/a	8	choice2	n/a	0	n/a
153.9353109	1.5	n/a	n/a	8	outcome	n/a	n/a	0
155.4353109	6.0668208000000154	12.850326100000006	n/a	8	ITI_onset	n/a	n/a	n/a
161.5021317	1.256926299999992	6.78350529999999	1.256926299999992	9	stim1	n/a	n/a	n/a
162.759058	0.009740699999994832	5.526578999999998	n/a	9	choice1	0	n/a	n/a
168.285637	0.44902350000001023	4.466575400000002	0.44902350000001023	9	stim2	n/a	1	n/a
168.73466050000002	0.01755189999999129	4.017551899999991	n/a	9	choice2	n/a	1	n/a
172.7522124	1.5	n/a	n/a	9	outcome	n/a	n/a	1
174.2522124	4.56677919999999	9.400182899999985	n/a	9	ITI_onset	n/a	n/a	n/a
178.8189916	0.7985108000000182	4.833403699999995	0.7985108000000182	10	stim1	n/a	n/a	n/a
179.6175024	0.0181817999999912	4.034892899999977	n/a	10	choice1	1	n/a	n/a
183.6523953	0.6910291000000143	3.7000066000000222	0.6910291000000143	10	stim2	n/a	0	n/a
184.3434244	0.008977500000008149	3.0089775000000083	n/a	10	choice2	n/a	0	n/a
187.35240190000002	1.5	n/a	n/a	10	outcome	n/a	n/a	1
188.85240190000002	4.566790699999983	10.166885999999998	n/a	10	ITI_onset	n/a	n/a	n/a
193.4191926	1.5658484999999929	5.6000953000000155	1.5658484999999929	11	stim1	n/a	n/a	n/a
194.9850411	0.01749140000002808	4.034246800000022	n/a	11	choice1	1	n/a	n/a
199.0192879	0.599037400000001	2.6166440000000293	0.599037400000001	11	stim2	n/a	1	n/a
199.61832530000004	0.01760659999999916	2.017606600000028	n/a	11	choice2	n/a	1	n/a
201.63593190000006	1.5	n/a	n/a	11	outcome	n/a	n/a	0
203.13593190000006	3.566758199999982	9.083508099999976	n/a	11	ITI_onset	n/a	n/a	n/a
206.70269010000004	1.9918779999999678	5.516749899999995	1.9918779999999678	12	stim1	n/a	n/a	n/a
208.69456809999997	0.008143700000015087	3.5248719000000275	n/a	12	choice1	1	n/a	n/a
212.21944000000002	0.545992900000012	3.0499825999999883	0.545992900000012	12	stim2	n/a	0	n/a
212.7654329	0.003989699999976438	2.5039896999999764	n/a	12	choice2	n/a	0	n/a
215.26942259999998	1.5	n/a	n/a	12	outcome	n/a	n/a	1
216.76942259999998	7.5668405999999955	14.350257199999993	n/a	12	ITI_onset	n/a	n/a	n/a
224.33626320000002	0.7470951999999815	6.783416599999997	0.7470951999999815	13	stim1	n/a	n/a	n/a
225.0833584	0.01960230000002775	6.036321400000015	n/a	13	choice1	0	n/a	n/a
231.11967979999997	0.44160879999998726	2.4500249000000185	0.44160879999998726	13	stim2	n/a	1	n/a
231.5612886	0.008416100000031292	2.0084161000000313	n/a	13	choice2	n/a	1	n/a
233.5697047	1.5	n/a	n/a	13	outcome	n/a	n/a	0
235.0697047	3.5667502000000093	9.150140599999984	n/a	13	ITI_onset	n/a	n/a	n/a
238.63645490000005	0.5548306999999914	5.583390399999975	0.5548306999999914	14	stim1	n/a	n/a	n/a
239.19128560000001	0.011846799999999349	5.028559699999984	n/a	14	choice1	1	n/a	n/a
244.21984529999997	0.5144591999999829	4.033339900000021	0.5144591999999829	14	stim2	n/a	0	n/a
244.7343045	0.018880700000037904	3.5188807000000377	n/a	14	choice2	n/a	0	n/a
248.25318520000002	1.5	n/a	n/a	14	outcome	n/a	n/a	0
249.75318520000002	5.566806899999967	10.500207799999975	n/a	14	ITI_onset	n/a	n/a	n/a
255.31999209999998	0.9092183000000077	4.933400900000008	0.9092183000000077	15	stim1	n/a	n/a	n/a
256.2292104	0.007456300000019837	4.0241826000000005	n/a	15	choice1	0	n/a	n/a
260.253393	0.5289451000000117	2.5333410000000147	0.5289451000000117	15	stim2	n/a	1	n/a
260.7823381	0.004395900000003166	2.004395900000003	n/a	15	choice2	n/a	1	n/a
262.786734	1.5	n/a	n/a	15	outcome	n/a	n/a	0
264.286734	7.566824099999969	12.950295899999968	n/a	15	ITI_onset	n/a	n/a	n/a
271.8535581	1.3592845000000089	5.3834718	1.3592845000000089	16	stim1	n/a	n/a	n/a
273.2128426	0.0073283999999985095	4.024187299999991	n/a	16	choice1	1	n/a	n/a
277.2370299	0.7572608999999939	6.266608200000017	0.7572608999999939	16	stim2	n/a	0	n/a
277.9942908	0.009347300000023097	5.509347300000023	n/a	16	choice2	n/a	0	n/a
283.5036381	1.5	n/a	n/a	16	outcome	n/a	n/a	0
285.0036381	8.066837600000028	12.950238400000032	n/a	16	ITI_onset	n/a	n/a	n/a
293.07047570000003	2.8476098999999815	4.883400800000003	2.8476098999999815	17	stim1	n/a	n/a	n/a
295.9180856	0.019114000000001397	2.0357909000000216	n/a	17	choice1	0	n/a	n/a
297.95387650000004	0.9852546999999904	7.500030299999984	0.9852546999999904	17	stim2	n/a	0	n/a
298.9391312	0.014775599999993574	6.514775599999994	n/a	17	choice2	n/a	0	n/a
305.4539068	1.5	n/a	n/a	17	outcome	n/a	n/a	1
306.9539068	7.066878499999992	11.616914699999965	n/a	17	ITI_onset	n/a	n/a	n/a
314.0207853	2.0174392000000227	4.550036199999973	2.0174392000000227	18	stim1	n/a	n/a	n/a
316.0382245	0.01592059999995399	2.5325969999999507	n/a	18	choice1	0	n/a	n/a
318.57082149999997	0.9432060000000055	4.950040900000022	0.9432060000000055	18	stim2	n/a	1	n/a
319.5140275	0.0068349000000162054	4.006834900000016	n/a	18	choice2	n/a	1	n/a
323.5208624	1.5	n/a	n/a	18	outcome	n/a	n/a	1
325.0208624	3.066757900000026	9.333480299999996	n/a	18	ITI_onset	n/a	n/a	n/a
328.0876203	1.2456201	6.26672239999997	1.2456201	19	stim1	n/a	n/a	n/a
329.3332404	0.004380199999955948	5.02110229999997	n/a	19	choice1	0	n/a	n/a
334.3543427	0.435530700000003	3.9500178000000306	0.435530700000003	19	stim2	n/a	1	n/a
334.7898734	0.014487100000027568	3.5144871000000277	n/a	19	choice2	n/a	1	n/a
338.30436050000003	1.5	n/a	n/a	19	outcome	n/a	n/a	0
339.80436050000003	6.066822199999995	12.0002402	n/a	19	ITI_onset	n/a	n/a	n/a
345.8711827	0.3988452999999863	5.933418000000005	0.3988452999999863	20	stim1	n/a	n/a	n/a
346.270028	0.01782709999999497	5.534572700000019	n/a	20	choice1	1	n/a	n/a
351.80460070000004	0.6079375	6.116646699999983	0.6079375	20	stim2	n/a	0	n/a
352.41253820000003	0.008709199999982957	5.508709199999983	n/a	20	choice2	n/a	0	n/a
357.9212474	1.5	n/a	n/a	20	outcome	n/a	n/a	0
359.4212474	3.56687089999998	7.033533400000015	n/a	20	ITI_onset	n/a	n/a	n/a
362.9881183	1.4299085000000196	3.466662500000035	1.4299085000000196	21	stim1	n/a	n/a	n/a
364.4180268	0.020059000000008383	2.0367540000000153	n/a	21	choice1	1	n/a	n/a
366.45478080000004	4.131323299999989	6.650058699999994	4.131323299999989	21	stim2	n/a	0	n/a
370.5861041	0.01873540000000503	2.518735400000005	n/a	21	choice2	n/a	0	n/a
373.1048395	1.5	n/a	n/a	21	outcome	n/a	n/a	0
374.6048395	8.06681799999997	12.583570799999986	n/a	21	ITI_onset	n/a	n/a	n/a
382.6716575	0.4952494000000297	4.516752800000017	0.4952494000000297	22	stim1	n/a	n/a	n/a
383.1669069	0.004758399999991525	4.021503399999987	n/a	22	choice1	0	n/a	n/a
387.1884103	0.6310767999999807	6.649982199999969	0.6310767999999807	22	stim2	n/a	1	n/a
387.8194871	0.01890539999998873	6.018905399999989	n/a	22	choice2	n/a	1	n/a
393.8383925	1.5	n/a	n/a	22	outcome	n/a	n/a	1
395.3383925	5.600174700000032	11.216938200000033	n/a	22	ITI_onset	n/a	n/a	n/a
400.9385672	1.5922131999999982	5.616763500000001	1.5922131999999982	23	stim1	n/a	n/a	n/a
402.5307804	0.0078048999999882655	4.024550300000002	n/a	23	choice1	0	n/a	n/a
406.5553307	0.6824898999999859	3.199968500000017	0.6824898999999859	23	stim2	n/a	0	n/a
407.23782059999996	0.01747860000003129	2.517478600000031	n/a	23	choice2	n/a	0	n/a
409.7552992	1.5	n/a	n/a	23	outcome	n/a	n/a	0
411.2552992	2.566767499999958	5.333483799999987	n/a	23	ITI_onset	n/a	n/a	n/a
413.8220667	0.7333417999999947	2.766716300000029	0.7333417999999947	24	stim1	n/a	n/a	n/a
414.5554085	0.016631400000012946	2.0333745000000345	n/a	24	choice1	1	n/a	n/a
416.58878300000003	0.7160923000000184	3.7333093999999694	0.7160923000000184	24	stim2	n/a	0	n/a
417.30487530000005	0.017217099999950733	3.0172170999999506	n/a	24	choice2	n/a	0	n/a
420.3220924	1.5	n/a	n/a	24	outcome	n/a	n/a	0
421.8220924	3.066792700000049	10.200222300000023	n/a	24	ITI_onset	n/a	n/a	n/a
424.88888510000004	0.5989515999999713	7.133429599999974	0.5989515999999713	25	stim1	n/a	n/a	n/a
425.4878367	0.017715100000030362	6.534478000000003	n/a	25	choice1	0	n/a	n/a
432.0223147	0.4965292999999947	3.016665099999984	0.4965292999999947	25	stim2	n/a	1	n/a
432.518844	0.020135799999989105	2.520135799999989	n/a	25	choice2	n/a	1	n/a
435.0389798	1.5	n/a	n/a	25	outcome	n/a	n/a	0
436.5389798	1.0	1.0	n/a	25	ITI_onset	n/a	n/a	n/a
