onset	duration	duration2fb	response_time	trial	event	choice1	state	reward
0.0	1.0772179670000006	3.6167312920000003	1.0772179670000006	1	stim1	n/a	n/a	n/a
1.0772179669999993	0.02310029999999824	2.5395133249999997	n/a	1	choice1	0	n/a	n/a
3.6167312920000008	0.45856539300000076	2.9666733390000006	0.45856539300000076	1	stim2	n/a	0	n/a
4.075296685000001	0.008107946000000083	2.508107946	n/a	1	choice2	n/a	0	n/a
6.5834046310000005	1.5	n/a	n/a	1	outcome	n/a	n/a	0
8.083404631	3.0668015319999977	5.466807754999998	n/a	1	ITI_onset	n/a	n/a	n/a
11.150206162999996	0.36292634100000215	2.400006223	0.36292634100000215	2	stim1	n/a	n/a	n/a
11.513132504000001	0.020365785000001777	2.0370798819999982	n/a	2	choice1	0	n/a	n/a
13.550212385999995	0.47090054599999714	4.983351506999999	0.47090054599999714	2	stim2	n/a	0	n/a
14.021112931999998	0.012450961000002281	4.5124509610000025	n/a	2	choice2	n/a	0	n/a
18.533563892999997	1.5	n/a	n/a	2	outcome	n/a	n/a	0
20.033563892999997	3.566809392000003	6.066867617000003	n/a	2	ITI_onset	n/a	n/a	n/a
23.600373285	0.464760076999999	2.5000582250000005	0.464760076999999	3	stim1	n/a	n/a	n/a
24.065133362	0.018594316000002435	2.0352981480000016	n/a	3	choice1	0	n/a	n/a
26.100431510000003	0.7937529609999984	5.300008918	0.7937529609999984	3	stim2	n/a	1	n/a
26.894184471	0.006255957000001217	4.506255957000001	n/a	3	choice2	n/a	1	n/a
31.400440428	1.5	n/a	n/a	3	outcome	n/a	n/a	0
32.900440427999996	4.066828478999996	8.083585885	n/a	3	ITI_onset	n/a	n/a	n/a
36.96726890699999	0.4798557290000099	4.016757406000004	0.4798557290000099	4	stim1	n/a	n/a	n/a
37.44712463600001	0.02015213099999528	3.5369016769999946	n/a	4	choice1	0	n/a	n/a
40.984026313	0.5236904149999974	3.5333228110000054	0.5236904149999974	4	stim2	n/a	1	n/a
41.50771672799999	0.009632396000008156	3.009632396000008	n/a	4	choice2	n/a	1	n/a
44.517349124000006	1.5	n/a	n/a	4	outcome	n/a	n/a	0
46.017349124000006	3.566779075999999	6.4335227989999915	n/a	4	ITI_onset	n/a	n/a	n/a
49.584128199999995	0.34293396999998366	2.8667437229999924	0.34293396999998366	5	stim1	n/a	n/a	n/a
49.927062169999985	0.007079775999998674	2.5238097530000085	n/a	5	choice1	1	n/a	n/a
52.450871922999994	0.40513905300000624	3.416665464000005	0.40513905300000624	5	stim2	n/a	1	n/a
52.85601097599999	0.011526410999998916	3.011526410999999	n/a	5	choice2	n/a	1	n/a
55.867537387	1.5	n/a	n/a	5	outcome	n/a	n/a	1
57.367537387	4.0668289599999845	6.500181893999994	n/a	5	ITI_onset	n/a	n/a	n/a
61.43436634699998	0.402457150000002	2.4333529340000095	0.402457150000002	6	stim1	n/a	n/a	n/a
61.83682349699998	0.014151852000009967	2.0308957840000077	n/a	6	choice1	1	n/a	n/a
63.86771928099999	0.4270555940000049	4.933349085000009	0.4270555940000049	6	stim2	n/a	1	n/a
64.294774875	0.006293491000003996	4.506293491000004	n/a	6	choice2	n/a	1	n/a
68.801068366	1.5	n/a	n/a	6	outcome	n/a	n/a	0
70.301068366	2.5669492610000018	8.98360285499999	n/a	6	ITI_onset	n/a	n/a	n/a
72.868017627	0.38575075199999265	6.416653593999989	0.38575075199999265	7	stim1	n/a	n/a	n/a
73.253768379	0.014120092999990447	6.030902841999996	n/a	7	choice1	1	n/a	n/a
79.284671221	0.5935777390000003	5.099927691000004	0.5935777390000003	7	stim2	n/a	0	n/a
79.87824896	0.006349952000004123	4.506349952000004	n/a	7	choice2	n/a	0	n/a
84.384598912	1.5	n/a	n/a	7	outcome	n/a	n/a	0
85.884598912	2.5668488500000093	8.56694380800001	n/a	7	ITI_onset	n/a	n/a	n/a
88.451447762	0.46433244799998646	6.000094958000002	0.46433244799998646	8	stim1	n/a	n/a	n/a
88.91578021	0.019010076999999	5.535762510000015	n/a	8	choice1	1	n/a	n/a
94.45154272	0.4114954209999705	2.9166920899999824	0.4114954209999705	8	stim2	n/a	1	n/a
94.86303814099998	0.005196669000011752	2.5051966690000116	n/a	8	choice2	n/a	1	n/a
97.36823480999999	1.5	n/a	n/a	8	outcome	n/a	n/a	1
98.86823480999999	5.566838584000012	10.466884747999996	n/a	8	ITI_onset	n/a	n/a	n/a
104.435073394	0.3760320599999977	4.900046163999985	0.3760320599999977	9	stim1	n/a	n/a	n/a
104.811105454	0.0072857309999963035	4.5240141039999875	n/a	9	choice1	1	n/a	n/a
109.33511955799999	0.4696067509999993	2.983351506000006	0.4696067509999993	9	stim2	n/a	1	n/a
109.80472630899997	0.01374475500000699	2.513744755000007	n/a	9	choice2	n/a	1	n/a
112.31847106399998	1.5	n/a	n/a	9	outcome	n/a	n/a	1
113.81847106399998	3.5668543040000076	7.516847711000009	n/a	9	ITI_onset	n/a	n/a	n/a
117.38532536800001	0.41383855799998853	3.949993407000002	0.41383855799998853	10	stim1	n/a	n/a	n/a
117.79916392599999	0.019424873000010848	3.536154849000013	n/a	10	choice1	1	n/a	n/a
121.335318775	0.46095568799998726	2.466644787999976	0.46095568799998726	10	stim2	n/a	0	n/a
121.79627446299999	0.005689099999988684	2.0056890999999886	n/a	10	choice2	n/a	0	n/a
123.80196356299997	1.5	n/a	n/a	10	outcome	n/a	n/a	0
125.30196356299997	4.066838906000019	6.383530643000006	n/a	10	ITI_onset	n/a	n/a	n/a
129.368802469	0.27994645099999615	2.3166917369999864	0.27994645099999615	11	stim1	n/a	n/a	n/a
129.64874892	0.02004113399999915	2.03674528599999	n/a	11	choice1	1	n/a	n/a
131.685494206	0.4916464799999958	3.999991819000017	0.4916464799999958	11	stim2	n/a	1	n/a
132.177140686	0.00834533900002134	3.508345339000021	n/a	11	choice2	n/a	1	n/a
135.68548602500002	1.5	n/a	n/a	11	outcome	n/a	n/a	1
137.18548602500002	2.5668093919999957	10.533635272999993	n/a	11	ITI_onset	n/a	n/a	n/a
139.752295417	0.4356761810000171	7.9668258809999974	0.4356761810000171	12	stim1	n/a	n/a	n/a
140.18797159800002	0.014355561999982456	7.53114969999998	n/a	12	choice1	1	n/a	n/a
147.719121298	0.5045898720000114	3.0166440020000156	0.5045898720000114	12	stim2	n/a	1	n/a
148.22371117000003	0.01205413000000408	2.512054130000004	n/a	12	choice2	n/a	1	n/a
150.73576530000003	1.5	n/a	n/a	12	outcome	n/a	n/a	0
152.23576530000003	2.566803616999998	7.516837444999982	n/a	12	ITI_onset	n/a	n/a	n/a
154.80256891700003	0.41418021099999897	4.950033827999985	0.41418021099999897	13	stim1	n/a	n/a	n/a
155.21674912800003	0.019098617999989072	4.535853616999986	n/a	13	choice1	1	n/a	n/a
159.75260274500002	0.4641110950000002	2.9833521480000056	0.4641110950000002	13	stim2	n/a	1	n/a
160.21671384	0.019241053000005195	2.5192410530000053	n/a	13	choice2	n/a	1	n/a
162.735954893	1.5	n/a	n/a	13	outcome	n/a	n/a	1
164.235954893	4.066838424000016	6.450179632999992	n/a	13	ITI_onset	n/a	n/a	n/a
168.30279331700004	0.34631682599999475	2.3833412089999766	0.34631682599999475	14	stim1	n/a	n/a	n/a
168.64911014300003	0.02028526399997645	2.0370243829999817	n/a	14	choice1	1	n/a	n/a
170.68613452600002	0.44296544100000756	4.450009609	0.44296544100000756	14	stim2	n/a	1	n/a
171.129099967	0.007044167999993078	4.007044167999993	n/a	14	choice2	n/a	1	n/a
175.136144135	1.5	n/a	n/a	14	outcome	n/a	n/a	1
176.636144135	4.066856870000017	9.533578328999981	n/a	14	ITI_onset	n/a	n/a	n/a
180.70300100500003	0.43706974399997855	5.466721458999964	0.43706974399997855	15	stim1	n/a	n/a	n/a
181.140070749	0.012878270000015618	5.029651714999986	n/a	15	choice1	1	n/a	n/a
186.169722464	0.5205404610000259	4.0332974680000335	0.5205404610000259	15	stim2	n/a	0	n/a
186.690262925	0.012757007000007434	3.5127570070000074	n/a	15	choice2	n/a	0	n/a
190.20301993200002	1.5	n/a	n/a	15	outcome	n/a	n/a	0
191.70301993200002	6.566904668999982	9.250333554000012	n/a	15	ITI_onset	n/a	n/a	n/a
198.269924601	0.653785189999995	2.6834288850000303	0.653785189999995	16	stim1	n/a	n/a	n/a
198.923709791	0.012889497000025585	2.0296436950000354	n/a	16	choice1	1	n/a	n/a
200.95335348600003	0.528829338999989	5.033293296999967	0.528829338999989	16	stim2	n/a	1	n/a
201.48218282500002	0.0044639579999784474	4.504463957999978	n/a	16	choice2	n/a	1	n/a
205.986646783	1.5	n/a	n/a	16	outcome	n/a	n/a	0
207.486646783	6.566861040000018	10.416933332999994	n/a	16	ITI_onset	n/a	n/a	n/a
214.05350782300002	0.32661157300000193	3.8500722929999758	0.32661157300000193	17	stim1	n/a	n/a	n/a
214.38011939600003	0.006768597999995109	3.5234607199999735	n/a	17	choice1	1	n/a	n/a
217.903580116	0.5855131019999972	3.6000053250000055	0.5855131019999972	17	stim2	n/a	1	n/a
218.489093218	0.01449222300000838	3.0144922230000084	n/a	17	choice2	n/a	1	n/a
221.50358544099998	1.5	n/a	n/a	17	outcome	n/a	n/a	0
223.00358544099998	6.066836660000001	8.416890826999996	n/a	17	ITI_onset	n/a	n/a	n/a
229.070422101	0.31930563100002474	2.350054166999995	0.31930563100002474	18	stim1	n/a	n/a	n/a
229.389727732	0.013986318999959621	2.03074853599997	n/a	18	choice1	0	n/a	n/a
231.420476268	0.48120887200001744	2.9999914990000254	0.48120887200001744	18	stim2	n/a	0	n/a
231.90168514	0.018782627000007778	2.5187826270000078	n/a	18	choice2	n/a	0	n/a
234.42046776700002	1.5	n/a	n/a	18	outcome	n/a	n/a	0
235.92046776700002	3.566805863000016	6.950150920999993	n/a	18	ITI_onset	n/a	n/a	n/a
239.48727363000003	0.3528470679999737	3.383345057999977	0.3528470679999737	19	stim1	n/a	n/a	n/a
239.840120698	0.013734809999994468	3.0304979900000033	n/a	19	choice1	0	n/a	n/a
242.870618688	0.5164775060000247	3.5333988409999875	0.5164775060000247	19	stim2	n/a	1	n/a
243.387096194	0.01692133499996271	3.016921334999963	n/a	19	choice2	n/a	1	n/a
246.40401752900001	1.5	n/a	n/a	19	outcome	n/a	n/a	1
247.90401752900001	5.566815326999989	8.516865194999962	n/a	19	ITI_onset	n/a	n/a	n/a
253.470832856	0.4183461440000101	2.9500498679999727	0.4183461440000101	20	stim1	n/a	n/a	n/a
253.88917899999998	0.014954177999985404	2.5317037239999625	n/a	20	choice1	0	n/a	n/a
256.4208827239999	0.4971626680000336	3.0166497770000134	0.4971626680000336	20	stim2	n/a	1	n/a
256.91804539199995	0.019487108999979682	2.5194871089999795	n/a	20	choice2	n/a	1	n/a
259.43753250099996	1.5	n/a	n/a	20	outcome	n/a	n/a	1
260.93753250099996	2.5667917470000683	5.100171661	n/a	20	ITI_onset	n/a	n/a	n/a
263.504324248	0.49928541399998355	2.533379913999932	0.49928541399998355	21	stim1	n/a	n/a	n/a
264.003609662	0.017419539999973494	2.034094499999948	n/a	21	choice1	0	n/a	n/a
266.03770416199995	0.4772970130000613	4.983325201000029	0.4772970130000613	21	stim2	n/a	1	n/a
266.515001175	0.0060281879999674855	4.506028187999967	n/a	21	choice2	n/a	1	n/a
271.02102936299997	1.5	n/a	n/a	21	outcome	n/a	n/a	1
272.52102936299997	3.566861681999988	9.033590520000027	n/a	21	ITI_onset	n/a	n/a	n/a
276.08789104499994	0.43300646800000686	5.466728838000039	0.43300646800000686	22	stim1	n/a	n/a	n/a
276.52089751299997	0.016887650999997277	5.033722370000032	n/a	22	choice1	0	n/a	n/a
281.554619883	0.4814013519999571	3.5000014439999942	0.4814013519999571	22	stim2	n/a	0	n/a
282.03602123499996	0.018600092000036966	3.018600092000037	n/a	22	choice2	n/a	0	n/a
285.054621327	1.5	n/a	n/a	22	outcome	n/a	n/a	1
286.554621327	5.583536800999951	14.066978132999967	n/a	22	ITI_onset	n/a	n/a	n/a
292.13815812799993	0.45480944600002843	8.483441332000016	0.45480944600002843	23	stim1	n/a	n/a	n/a
292.592967574	0.011763162000046578	8.028631885999989	n/a	23	choice1	0	n/a	n/a
300.62159945999997	0.4724606040000217	7.483298574000015	0.4724606040000217	23	stim2	n/a	1	n/a
301.09406006399996	0.01083796999999322	7.010837969999994	n/a	23	choice2	n/a	1	n/a
308.104898034	1.5	n/a	n/a	23	outcome	n/a	n/a	0
309.604898034	3.066928087999986	5.833605373999977	n/a	23	ITI_onset	n/a	n/a	n/a
312.67182612199997	0.22976919300004375	2.766677285999991	0.22976919300004375	24	stim1	n/a	n/a	n/a
312.901595315	0.020212761999981014	2.5369080929999472	n/a	24	choice1	0	n/a	n/a
315.438503408	0.4461516440000269	7.466621690000058	0.4461516440000269	24	stim2	n/a	0	n/a
315.88465505199997	0.02047004600003129	7.020470046000031	n/a	24	choice2	n/a	0	n/a
322.90512509800004	1.5	n/a	n/a	24	outcome	n/a	n/a	1
324.40512509800004	5.066986152999918	11.96702589999995	n/a	24	ITI_onset	n/a	n/a	n/a
329.47211125099994	0.36994997700001114	6.900039747000031	0.36994997700001114	25	stim1	n/a	n/a	n/a
329.8420612279999	0.013353698000020814	6.53008977000002	n/a	25	choice1	0	n/a	n/a
336.37215099799994	0.4207993170000264	5.433369296000048	0.4207993170000264	25	stim2	n/a	1	n/a
336.792950315	0.012569979000021703	5.0125699790000215	n/a	25	choice2	n/a	1	n/a
341.805520294	1.5	n/a	n/a	25	outcome	n/a	n/a	0
343.305520294	1.0	1.0	n/a	25	ITI_onset	n/a	n/a	n/a
