onset	duration	duration2fb	response_time	trial	event	choice1	state	reward
0.0	0.28334053600000336	3.8167188449999996	0.28334053600000336	1	stim1	n/a	n/a	n/a
0.2833405360000043	0.017038427999999838	3.533378308999996	n/a	1	choice1	1	n/a	n/a
3.8167188450000005	0.45948769900000114	3.9666598659999983	0.45948769900000114	1	stim2	n/a	1	n/a
4.276206544000001	0.007172167000000627	3.507172166999997	n/a	1	choice2	n/a	1	n/a
7.783378711000001	1.5	n/a	n/a	1	outcome	n/a	n/a	1
9.283378711000001	3.5668331310000068	7.550221369999999	n/a	1	ITI_onset	n/a	n/a	n/a
12.850211842000004	0.4512896069999988	3.9833882389999924	0.4512896069999988	2	stim1	n/a	n/a	n/a
13.301501449000003	0.015439551999996184	3.5320986319999936	n/a	2	choice1	1	n/a	n/a
16.833600080999997	0.49287964200000717	2.500002726000006	0.49287964200000717	2	stim2	n/a	0	n/a
17.326479723000002	0.007123083999998925	2.007123083999999	n/a	2	choice2	n/a	0	n/a
19.333602807000002	1.5	n/a	n/a	2	outcome	n/a	n/a	0
20.833602807000002	3.066853983000001	5.9501626309999995	n/a	2	ITI_onset	n/a	n/a	n/a
23.900456790000003	0.3495986289999928	2.8833086479999985	0.3495986289999928	3	stim1	n/a	n/a	n/a
24.250055418999995	0.016998328000008767	2.5337100190000057	n/a	3	choice1	0	n/a	n/a
26.783765438000007	0.333630717	7.349987119999998	0.333630717	3	stim2	n/a	1	n/a
27.117396155000005	0.016356402999997955	7.016356402999998	n/a	3	choice2	n/a	1	n/a
34.133752558	1.5	n/a	n/a	3	outcome	n/a	n/a	1
35.633752558	3.066904669000003	10.983677762	n/a	3	ITI_onset	n/a	n/a	n/a
38.70065722700001	0.3908601630000048	7.916773092999996	0.3908601630000048	4	stim1	n/a	n/a	n/a
39.09151739000001	0.009118792999986908	7.525912929999992	n/a	4	choice1	0	n/a	n/a
46.61743032000001	0.818096046999999	2.8333383060000052	0.818096046999999	4	stim2	n/a	0	n/a
47.43552636700001	0.015242259000006015	2.015242259000006	n/a	4	choice2	n/a	0	n/a
49.45076862600001	1.5	n/a	n/a	4	outcome	n/a	n/a	0
50.95076862600001	7.566872749000002	10.433560331999994	n/a	4	ITI_onset	n/a	n/a	n/a
58.51764137500001	0.3367283800000005	2.8666875829999916	0.3367283800000005	5	stim1	n/a	n/a	n/a
58.85436975500001	0.013251361999995425	2.5299592029999913	n/a	5	choice1	0	n/a	n/a
61.384328958	0.4011271059999999	2.416677334000007	0.4011271059999999	5	stim2	n/a	1	n/a
61.785456064	0.015550228000007337	2.0155502280000075	n/a	5	choice2	n/a	1	n/a
63.80100629200001	1.5	n/a	n/a	5	outcome	n/a	n/a	1
65.30100629200001	4.566843236	10.950235130999994	n/a	5	ITI_onset	n/a	n/a	n/a
69.86784952800001	0.35203415599999427	6.383391894999994	0.35203415599999427	6	stim1	n/a	n/a	n/a
70.21988368400001	0.014626640000002225	6.031357738999999	n/a	6	choice1	0	n/a	n/a
76.25124142300001	0.3380690109999996	2.3499973860000027	0.3380690109999996	6	stim2	n/a	1	n/a
76.589310434	0.011928375000003143	2.011928375000003	n/a	6	choice2	n/a	1	n/a
78.60123880900001	1.5	n/a	n/a	6	outcome	n/a	n/a	0
80.10123880900001	8.066866814999987	11.000241403000008	n/a	6	ITI_onset	n/a	n/a	n/a
88.16810562399999	0.39879583800002	2.9333745880000204	0.39879583800002	7	stim1	n/a	n/a	n/a
88.56690146200002	0.017880852999995114	2.5345787500000005	n/a	7	choice1	1	n/a	n/a
91.10148021200001	0.3249187010000023	2.8333288419999882	0.3249187010000023	7	stim2	n/a	0	n/a
91.42639891300001	0.008410140999985742	2.508410140999986	n/a	7	choice2	n/a	0	n/a
93.934809054	1.5	n/a	n/a	7	outcome	n/a	n/a	0
95.434809054	2.566781482000006	5.450180917000005	n/a	7	ITI_onset	n/a	n/a	n/a
98.00159053600001	0.3488906190000125	2.8833994349999994	0.3488906190000125	8	stim1	n/a	n/a	n/a
98.35048115500003	0.01781797699999879	2.534508815999987	n/a	8	choice1	0	n/a	n/a
100.88498997100001	0.38288984100001106	7.399947516	0.38288984100001106	8	stim2	n/a	1	n/a
101.26787981200002	0.017057674999989104	7.017057674999989	n/a	8	choice2	n/a	1	n/a
108.28493748700001	1.5	n/a	n/a	8	outcome	n/a	n/a	0
109.78493748700001	2.5668833370000064	6.466956127000012	n/a	8	ITI_onset	n/a	n/a	n/a
112.35182082400001	0.3740867169999983	3.9000727900000056	0.3740867169999983	9	stim1	n/a	n/a	n/a
112.72590754100003	0.00925545399999828	3.5259860730000074	n/a	9	choice1	0	n/a	n/a
116.25189361400001	0.3233740389999875	7.83337567899999	0.3233740389999875	9	stim2	n/a	1	n/a
116.575267653	0.010001640000002227	7.510001640000002	n/a	9	choice2	n/a	1	n/a
124.08526929300001	1.5	n/a	n/a	9	outcome	n/a	n/a	1
125.58526929300001	2.5668337720000127	6.516881395000004	n/a	9	ITI_onset	n/a	n/a	n/a
128.15210306500003	0.42520552999997746	3.9500476229999912	0.42520552999997746	10	stim1	n/a	n/a	n/a
128.577308595	0.008138743000017712	3.524842093000014	n/a	10	choice1	0	n/a	n/a
132.10215068800002	0.603150787999999	2.616709478000004	0.603150787999999	10	stim2	n/a	1	n/a
132.70530147600002	0.0135586900000053	2.0135586900000053	n/a	10	choice2	n/a	1	n/a
134.718860166	1.5	n/a	n/a	10	outcome	n/a	n/a	1
136.218860166	5.566790623999987	8.916852169999999	n/a	10	ITI_onset	n/a	n/a	n/a
141.78565079	0.32064401600000564	3.3500615460000116	0.32064401600000564	11	stim1	n/a	n/a	n/a
142.10629480600002	0.012687072000000625	3.029417530000006	n/a	11	choice1	0	n/a	n/a
145.135712336	0.9307449759999872	2.9500004649999902	0.9307449759999872	11	stim2	n/a	0	n/a
146.066457312	0.019255489000002853	2.019255489000003	n/a	11	choice2	n/a	0	n/a
148.085712801	1.5	n/a	n/a	11	outcome	n/a	n/a	0
149.585712801	3.066782765000011	6.866951121999999	n/a	11	ITI_onset	n/a	n/a	n/a
152.65249556600003	0.27200692699998036	3.8001683569999876	0.27200692699998036	12	stim1	n/a	n/a	n/a
152.924502493	0.011330080000014278	3.5281614300000075	n/a	12	choice1	0	n/a	n/a
156.45266392300002	0.3431553239999921	2.849876121999987	0.3431553239999921	12	stim2	n/a	1	n/a
156.795819247	0.00672079799999483	2.506720797999995	n/a	12	choice2	n/a	1	n/a
159.302540045	1.5	n/a	n/a	12	outcome	n/a	n/a	1
160.802540045	6.066849011000013	10.966941049000015	n/a	12	ITI_onset	n/a	n/a	n/a
166.86938905600002	0.37399560900000506	4.900092038000002	0.37399560900000506	13	stim1	n/a	n/a	n/a
167.243384665	0.00934624100002111	4.526096428999997	n/a	13	choice1	0	n/a	n/a
171.769481094	0.3740514289999846	3.383296938000014	0.3740514289999846	13	stim2	n/a	1	n/a
172.143532523	0.009245509000029415	3.0092455090000296	n/a	13	choice2	n/a	1	n/a
175.15277803200001	1.5	n/a	n/a	13	outcome	n/a	n/a	1
176.65277803200001	3.066850774999999	7.150250594999961	n/a	13	ITI_onset	n/a	n/a	n/a
179.71962880700002	0.5598021169999847	4.083399819999962	0.5598021169999847	14	stim1	n/a	n/a	n/a
180.279430924	0.0068276250000053555	3.5235977029999774	n/a	14	choice1	0	n/a	n/a
183.80302862699997	0.7098478790000372	3.7166706920000143	0.7098478790000372	14	stim2	n/a	1	n/a
184.51287650600003	0.006822812999977032	3.0068228129999772	n/a	14	choice2	n/a	1	n/a
187.51969931899998	1.5	n/a	n/a	14	outcome	n/a	n/a	1
189.01969931899998	7.0668616829999955	10.500240921999998	n/a	14	ITI_onset	n/a	n/a	n/a
196.086561002	0.4116827690000064	3.4333792390000015	0.4116827690000064	15	stim1	n/a	n/a	n/a
196.498243771	0.004959917000000132	3.0216964699999953	n/a	15	choice1	0	n/a	n/a
199.519940241	0.8194527189999935	4.333313604000025	0.8194527189999935	15	stim2	n/a	0	n/a
200.33939296	0.013860885000030975	3.513860885000031	n/a	15	choice2	n/a	0	n/a
203.853253845	1.5	n/a	n/a	15	outcome	n/a	n/a	0
205.353253845	4.066853181000013	11.950283733999967	n/a	15	ITI_onset	n/a	n/a	n/a
209.42010702600004	0.352318065999978	7.883430552999955	0.352318065999978	16	stim1	n/a	n/a	n/a
209.77242509200002	0.01433727699998417	7.531112486999977	n/a	16	choice1	0	n/a	n/a
217.303537579	0.783707051000034	2.8000307329999923	0.783707051000034	16	stim2	n/a	0	n/a
218.08724463000001	0.016323681999958352	2.016323681999958	n/a	16	choice2	n/a	0	n/a
220.103568312	1.5	n/a	n/a	16	outcome	n/a	n/a	0
221.603568312	3.0667923880000307	7.450184284000017	n/a	16	ITI_onset	n/a	n/a	n/a
224.6703607	0.3489461180000217	4.383391895999987	0.3489461180000217	17	stim1	n/a	n/a	n/a
225.01930681800002	0.017708262000000103	4.034445777999965	n/a	17	choice1	0	n/a	n/a
229.05375259599998	0.3815678170000028	2.39996034900003	0.3815678170000028	17	stim2	n/a	1	n/a
229.435320413	0.01839253200002713	2.018392532000027	n/a	17	choice2	n/a	1	n/a
231.453712945	1.5	n/a	n/a	17	outcome	n/a	n/a	0
232.953712945	5.066846604000021	7.883552296999959	n/a	17	ITI_onset	n/a	n/a	n/a
238.02055954900004	0.279621800999972	2.816705692999938	0.279621800999972	18	stim1	n/a	n/a	n/a
238.30018135	0.020386957000009715	2.537083891999966	n/a	18	choice1	1	n/a	n/a
240.837265242	0.37399785500002325	7.883302392000042	0.37399785500002325	18	stim2	n/a	0	n/a
241.21126309700003	0.009304537000018171	7.509304537000018	n/a	18	choice2	n/a	0	n/a
248.72056763400002	1.5	n/a	n/a	18	outcome	n/a	n/a	1
250.22056763400002	2.066921190999972	10.16705820499995	n/a	18	ITI_onset	n/a	n/a	n/a
252.28748882500003	0.5627040900000139	8.100137013999978	0.5627040900000139	19	stim1	n/a	n/a	n/a
252.85019291500004	0.020630125000025146	7.5374329239999645	n/a	19	choice1	1	n/a	n/a
260.38762583899995	0.32673187300004064	4.83329740400007	0.32673187300004064	19	stim2	n/a	0	n/a
260.71435771200004	0.0065655310000292955	4.506565531000029	n/a	19	choice2	n/a	0	n/a
265.2209232430001	1.5	n/a	n/a	19	outcome	n/a	n/a	1
266.7209232430001	2.100146958999976	5.083551237999927	n/a	19	ITI_onset	n/a	n/a	n/a
268.82107020200004	0.45176728099997854	2.9834042789999513	0.45176728099997854	20	stim1	n/a	n/a	n/a
269.272837483	0.014903492000012192	2.5316369979999727	n/a	20	choice1	1	n/a	n/a
271.804474481	0.3593840470000287	5.366657907999993	0.3593840470000287	20	stim2	n/a	0	n/a
272.163858528	0.007273860999965109	5.007273860999965	n/a	20	choice2	n/a	0	n/a
277.171132389	1.5	n/a	n/a	20	outcome	n/a	n/a	0
278.671132389	3.566815968000039	5.983525061000022	n/a	20	ITI_onset	n/a	n/a	n/a
282.237948357	0.3813313860000344	2.4167090929999833	0.3813313860000344	21	stim1	n/a	n/a	n/a
282.61927974300005	0.01874669699999504	2.035377706999949	n/a	21	choice1	1	n/a	n/a
284.65465745	0.6065342840000522	5.616682530000049	0.6065342840000522	21	stim2	n/a	1	n/a
285.261191734	0.010148245999997016	5.010148245999997	n/a	21	choice2	n/a	1	n/a
290.27133998000005	1.5	n/a	n/a	21	outcome	n/a	n/a	0
291.77133998000005	3.066828318999964	8.916961242999939	n/a	21	ITI_onset	n/a	n/a	n/a
294.838168299	0.32465821000002326	5.8501329239999755	0.32465821000002326	22	stim1	n/a	n/a	n/a
295.162826509	0.008939463999995496	5.5254747139999525	n/a	22	choice1	1	n/a	n/a
300.688301223	0.36779226399998877	8.383275445000036	0.36779226399998877	22	stim2	n/a	0	n/a
301.05609348699994	0.015483181000046897	8.015483181000047	n/a	22	choice2	n/a	0	n/a
309.07157666800003	1.5	n/a	n/a	22	outcome	n/a	n/a	1
310.57157666800003	7.06696433799999	13.450395692999999	n/a	22	ITI_onset	n/a	n/a	n/a
317.638541006	0.3506755610000109	6.383431355000008	0.3506755610000109	23	stim1	n/a	n/a	n/a
317.989216567	0.015991330999997444	6.032755793999997	n/a	23	choice1	1	n/a	n/a
324.021972361	0.3444301899999846	3.3499758920000167	0.3444301899999846	23	stim2	n/a	0	n/a
324.366402551	0.005545702000032179	3.005545702000032	n/a	23	choice2	n/a	0	n/a
327.371948253	1.5	n/a	n/a	23	outcome	n/a	n/a	1
328.871948253	8.066926162999938	12.516960152000014	n/a	23	ITI_onset	n/a	n/a	n/a
336.938874416	0.4212801980000222	4.450033989000076	0.4212801980000222	24	stim1	n/a	n/a	n/a
337.360154614	0.01206760300003225	4.028753791000054	n/a	24	choice1	1	n/a	n/a
341.38890840500005	0.4072723849999602	5.916651347999985	0.4072723849999602	24	stim2	n/a	0	n/a
341.79618079	0.009378963000024668	5.5093789630000245	n/a	24	choice2	n/a	0	n/a
347.305559753	1.5	n/a	n/a	24	outcome	n/a	n/a	0
348.805559753	7.0669356269999986	12.433695871999953	n/a	24	ITI_onset	n/a	n/a	n/a
355.87249538000003	0.3312118710000068	5.366760244999954	0.3312118710000068	25	stim1	n/a	n/a	n/a
356.203707251	0.018805082999984735	5.035548373999947	n/a	25	choice1	1	n/a	n/a
361.239255625	0.7299239790000138	4.7499586960000455	0.7299239790000138	25	stim2	n/a	1	n/a
361.969179604	0.020034717000031378	4.020034717000032	n/a	25	choice2	n/a	1	n/a
365.989214321	1.5	n/a	n/a	25	outcome	n/a	n/a	1
367.489214321	1.0	1.0	n/a	25	ITI_onset	n/a	n/a	n/a
