onset	duration	duration2fb	response_time	trial	event	choice1	state	reward
0.0	0.6443021999999983	3.183430400000001	0.6443021999999983	1	stim1	n/a	n/a	n/a
0.6443021999999985	0.022707300000001852	2.539128200000003	n/a	1	choice1	0	n/a	n/a
3.1834304000000024	0.6226924999999974	3.1332969999999984	0.6226924999999974	1	stim2	n/a	1	n/a
3.8061228999999983	0.010604500000001281	2.5106045000000012	n/a	1	choice2	n/a	1	n/a
6.316727400000001	1.5	n/a	n/a	1	outcome	n/a	n/a	0
7.816727400000001	3.0668240000000004	9.8668795	n/a	1	ITI_onset	n/a	n/a	n/a
10.883551400000002	0.2666883999999991	6.800055499999998	0.2666883999999991	2	stim1	n/a	n/a	n/a
11.150239800000001	0.01661829999999827	6.5333670999999995	n/a	2	choice1	1	n/a	n/a
17.6836069	0.35569470000000003	4.366706100000003	0.35569470000000003	2	stim2	n/a	1	n/a
18.0393016	0.01101140000000305	4.011011400000003	n/a	2	choice2	n/a	1	n/a
22.050313000000003	1.5	n/a	n/a	2	outcome	n/a	n/a	0
23.550313000000003	6.0668405999999955	10.366938499999996	n/a	2	ITI_onset	n/a	n/a	n/a
29.6171536	0.2730312000000049	4.300097900000001	0.2730312000000049	3	stim1	n/a	n/a	n/a
29.890184800000007	0.010305599999999686	4.027066699999995	n/a	3	choice1	1	n/a	n/a
33.9172515	0.3355843999999997	3.8499651000000013	0.3355843999999997	3	stim2	n/a	0	n/a
34.2528359	0.014380700000001525	3.5143807000000016	n/a	3	choice2	n/a	0	n/a
37.7672166	1.5	n/a	n/a	3	outcome	n/a	n/a	1
39.2672166	2.066850400000003	5.466872200000005	n/a	3	ITI_onset	n/a	n/a	n/a
41.334067000000005	0.3691129999999976	3.4000218000000024	0.3691129999999976	4	stim1	n/a	n/a	n/a
41.70318	0.014129699999997683	3.0309088000000046	n/a	4	choice1	1	n/a	n/a
44.73408880000001	0.37327979999998934	5.38332179999999	0.37327979999998934	4	stim2	n/a	0	n/a
45.1073686	0.01004200000000128	5.010042000000001	n/a	4	choice2	n/a	0	n/a
50.1174106	1.5	n/a	n/a	4	outcome	n/a	n/a	1
51.6174106	3.0667934000000097	5.366852100000004	n/a	4	ITI_onset	n/a	n/a	n/a
54.68420400000001	0.26490699999999195	2.3000586999999943	0.26490699999999195	5	stim1	n/a	n/a	n/a
54.949111	0.01846719999999914	2.0351517000000023	n/a	5	choice1	1	n/a	n/a
56.9842627	0.3836635999999999	3.3999688000000026	0.3836635999999999	5	stim2	n/a	0	n/a
57.36792629999999	0.016305200000002514	3.0163052000000024	n/a	5	choice2	n/a	0	n/a
60.3842315	1.5	n/a	n/a	5	outcome	n/a	n/a	1
61.8842315	8.066904500000005	14.5170334	n/a	5	ITI_onset	n/a	n/a	n/a
69.951136	0.4213054999999877	6.450128899999996	0.4213054999999877	6	stim1	n/a	n/a	n/a
70.3724415	0.012070300000006683	6.028823400000008	n/a	6	choice1	1	n/a	n/a
76.4012649	0.33462189999999825	6.8499522	0.33462189999999825	6	stim2	n/a	0	n/a
76.7358868	0.015330300000001443	6.515330300000001	n/a	6	choice2	n/a	0	n/a
83.2512171	1.5	n/a	n/a	6	outcome	n/a	n/a	0
84.7512171	2.566940499999997	6.383614099999992	n/a	6	ITI_onset	n/a	n/a	n/a
87.3181576	0.2891689999999944	3.816673599999995	0.2891689999999944	7	stim1	n/a	n/a	n/a
87.6073266	0.010771000000007917	3.5275046000000003	n/a	7	choice1	1	n/a	n/a
91.1348312	0.46548710000001303	8.483367800000007	0.46548710000001303	7	stim2	n/a	1	n/a
91.60031830000001	0.01788069999999425	8.017880699999994	n/a	7	choice2	n/a	1	n/a
99.618199	1.5	n/a	n/a	7	outcome	n/a	n/a	0
101.118199	3.566858200000002	6.166926399999997	n/a	7	ITI_onset	n/a	n/a	n/a
104.6850572	0.07215780000000085	2.600068199999994	0.07215780000000085	8	stim1	n/a	n/a	n/a
104.757215	0.01118069999999716	2.5279103999999935	n/a	8	choice1	0	n/a	n/a
107.2851254	0.41623649999999907	2.9333040000000037	0.41623649999999907	8	stim2	n/a	1	n/a
107.7013619	0.017067500000004655	2.5170675000000045	n/a	8	choice2	n/a	1	n/a
110.21842939999999	1.5	n/a	n/a	8	outcome	n/a	n/a	0
111.71842939999999	3.066781099999993	7.33348550000001	n/a	8	ITI_onset	n/a	n/a	n/a
114.7852105	1.737989200000011	4.266704400000017	1.737989200000011	9	stim1	n/a	n/a	n/a
116.52319969999999	0.012034299999999347	2.528715200000006	n/a	9	choice1	1	n/a	n/a
119.05191490000001	0.28397289999999337	2.300036399999983	0.28397289999999337	9	stim2	n/a	0	n/a
119.3358878	0.01606349999998929	2.0160634999999894	n/a	9	choice2	n/a	0	n/a
121.3519513	1.5	n/a	n/a	9	outcome	n/a	n/a	1
122.8519513	4.066776199999993	11.533579400000017	n/a	9	ITI_onset	n/a	n/a	n/a
126.91872749999999	0.4330918999999994	7.466803200000024	0.4330918999999994	10	stim1	n/a	n/a	n/a
127.35181939999998	0.016932200000010198	7.033711300000024	n/a	10	choice1	1	n/a	n/a
134.3855307	1.7528182999999844	8.766706999999995	1.7528182999999844	10	stim2	n/a	0	n/a
136.138349	0.013888700000010431	7.0138887000000105	n/a	10	choice2	n/a	0	n/a
143.1522377	1.5	n/a	n/a	10	outcome	n/a	n/a	1
144.6522377	3.0668726000000026	5.883550799999997	n/a	10	ITI_onset	n/a	n/a	n/a
147.7191103	0.28234329999997865	2.816678199999995	0.28234329999997865	11	stim1	n/a	n/a	n/a
148.0014536	0.01763230000002659	2.534334900000016	n/a	11	choice1	1	n/a	n/a
150.5357885	0.8750995999999869	4.883354300000006	0.8750995999999869	11	stim2	n/a	1	n/a
151.4108881	0.00825470000001951	4.00825470000002	n/a	11	choice2	n/a	1	n/a
155.4191428	1.5	n/a	n/a	11	outcome	n/a	n/a	0
156.9191428	3.5668555000000053	11.900279500000003	n/a	11	ITI_onset	n/a	n/a	n/a
160.4859983	0.30416609999997307	8.333423999999999	0.30416609999997307	12	stim1	n/a	n/a	n/a
160.79016439999998	0.01246820000000298	8.029257900000026	n/a	12	choice1	1	n/a	n/a
168.8194223	0.3514643999999971	7.866659899999998	0.3514643999999971	12	stim2	n/a	0	n/a
169.1708867	0.01519550000000163	7.515195500000002	n/a	12	choice2	n/a	0	n/a
176.68608220000002	1.5	n/a	n/a	12	outcome	n/a	n/a	1
178.18608220000002	4.066903899999976	6.400330199999996	n/a	12	ITI_onset	n/a	n/a	n/a
182.2529861	0.3089324000000197	2.333426300000021	0.3089324000000197	13	stim1	n/a	n/a	n/a
182.56191850000002	0.007736899999988964	2.0244939000000013	n/a	13	choice1	1	n/a	n/a
184.5864124	0.7308391999999876	4.749951700000005	0.7308391999999876	13	stim2	n/a	0	n/a
185.3172516	0.019112500000017463	4.019112500000017	n/a	13	choice2	n/a	0	n/a
189.33636410000003	1.5	n/a	n/a	13	outcome	n/a	n/a	1
190.83636410000003	5.06685189999998	11.983593599999994	n/a	13	ITI_onset	n/a	n/a	n/a
195.903216	0.3870031000000017	6.9167417000000135	0.3870031000000017	14	stim1	n/a	n/a	n/a
196.2902191	0.012987099999998463	6.5297386000000115	n/a	14	choice1	1	n/a	n/a
202.8199577	0.7221796999999788	2.733332800000004	0.7221796999999788	14	stim2	n/a	1	n/a
203.54213739999997	0.011153100000025005	2.011153100000025	n/a	14	choice2	n/a	1	n/a
205.5532905	1.5	n/a	n/a	14	outcome	n/a	n/a	0
207.0532905	2.566781900000002	7.700283999999985	n/a	14	ITI_onset	n/a	n/a	n/a
209.62007240000003	0.602031399999978	5.133502099999983	0.602031399999978	15	stim1	n/a	n/a	n/a
210.22210379999999	0.014634900000004563	4.531470700000005	n/a	15	choice1	1	n/a	n/a
214.75357449999998	0.43666030000001776	3.94990340000001	0.43666030000001776	15	stim2	n/a	0	n/a
215.1902348	0.01324309999999241	3.5132430999999924	n/a	15	choice2	n/a	0	n/a
218.7034779	1.5	n/a	n/a	15	outcome	n/a	n/a	1
220.2034779	3.0668347999999823	5.833545199999993	n/a	15	ITI_onset	n/a	n/a	n/a
223.27031269999998	0.24454290000000037	2.7667104000000107	0.24454290000000037	16	stim1	n/a	n/a	n/a
223.51485559999998	0.005468099999998231	2.5221675000000103	n/a	16	choice1	1	n/a	n/a
226.0370231	0.5538624999999884	7.566655700000003	0.5538624999999884	16	stim2	n/a	0	n/a
226.59088559999998	0.012793200000014621	7.012793200000015	n/a	16	choice2	n/a	0	n/a
233.6036788	1.5	n/a	n/a	16	outcome	n/a	n/a	0
235.1036788	2.566864399999991	7.433630300000019	n/a	16	ITI_onset	n/a	n/a	n/a
237.6705432	0.8298758000000089	4.866765900000027	0.8298758000000089	17	stim1	n/a	n/a	n/a
238.50041900000002	0.020143500000005587	4.036890100000019	n/a	17	choice1	1	n/a	n/a
242.53730910000002	0.21265379999997094	3.233321499999962	0.21265379999997094	17	stim2	n/a	0	n/a
242.7499629	0.020667699999990873	3.020667699999991	n/a	17	choice2	n/a	0	n/a
245.7706306	1.5	n/a	n/a	17	outcome	n/a	n/a	0
247.2706306	3.566828000000038	6.516860400000005	n/a	17	ITI_onset	n/a	n/a	n/a
250.83745860000005	0.9267891999999992	2.950032399999967	0.9267891999999992	18	stim1	n/a	n/a	n/a
251.76424780000002	0.006541299999982584	2.023243199999968	n/a	18	choice1	0	n/a	n/a
253.787491	0.846	2.86669160000002	0.846	18	stim2	n/a	1	n/a
254.633491	0.020691600000020117	2.02069160000002	n/a	18	choice2	n/a	1	n/a
256.6541826	1.5	n/a	n/a	18	outcome	n/a	n/a	1
258.1541826	2.5668171999999903	9.566858000000007	n/a	18	ITI_onset	n/a	n/a	n/a
260.7209998	0.9662760000000126	7.000040800000017	0.9662760000000126	19	stim1	n/a	n/a	n/a
261.6872758	0.017007099999987986	6.033764800000005	n/a	19	choice1	0	n/a	n/a
267.72104060000004	0.2993843999999808	5.816672499999986	0.2993843999999808	19	stim2	n/a	1	n/a
268.020425	0.017288100000005215	5.517288100000005	n/a	19	choice2	n/a	1	n/a
273.5377131	1.5	n/a	n/a	19	outcome	n/a	n/a	1
275.0377131	3.6001800999999976	10.350280800000007	n/a	19	ITI_onset	n/a	n/a	n/a
278.6378932	0.71796669999999	6.75010070000001	0.71796669999999	20	stim1	n/a	n/a	n/a
279.3558599	0.015361000000033528	6.03213400000002	n/a	20	choice1	0	n/a	n/a
285.3879939	0.4999314000000013	2.516685999999987	0.4999314000000013	20	stim2	n/a	1	n/a
285.8879253	0.01675459999998566	2.016754599999986	n/a	20	choice2	n/a	1	n/a
287.9046799	1.5	n/a	n/a	20	outcome	n/a	n/a	1
289.4046799	3.566814799999993	8.350189599999982	n/a	20	ITI_onset	n/a	n/a	n/a
292.9714947	1.2607912999999826	4.783374799999991	1.2607912999999826	21	stim1	n/a	n/a	n/a
294.232286	0.005886400000017602	3.522583500000008	n/a	21	choice1	0	n/a	n/a
297.7548695	0.44110420000000156	7.450002500000003	0.44110420000000156	21	stim2	n/a	1	n/a
298.19597369999997	0.008898300000000746	7.008898300000001	n/a	21	choice2	n/a	1	n/a
305.20487199999997	1.5	n/a	n/a	21	outcome	n/a	n/a	1
306.70487199999997	5.066901600000041	7.700294099999999	n/a	21	ITI_onset	n/a	n/a	n/a
311.7717736	0.5995734999999986	2.633392499999958	0.5995734999999986	22	stim1	n/a	n/a	n/a
312.37134710000004	0.01711259999999311	2.0338189999999594	n/a	22	choice1	0	n/a	n/a
314.4051661	0.8612812000000267	6.366609800000035	0.8612812000000267	22	stim2	n/a	1	n/a
315.2664473	0.005328600000008009	5.505328600000008	n/a	22	choice2	n/a	1	n/a
320.7717759	1.5	n/a	n/a	22	outcome	n/a	n/a	1
322.2717759	3.566898099999991	8.400310599999967	n/a	22	ITI_onset	n/a	n/a	n/a
325.838674	1.7965446999999695	4.833412499999977	1.7965446999999695	23	stim1	n/a	n/a	n/a
327.6352187	0.020161400000040883	3.036867800000007	n/a	23	choice1	0	n/a	n/a
330.6720865	0.36422240000002787	5.383319500000042	0.36422240000002787	23	stim2	n/a	1	n/a
331.0363089	0.0190971000000136	5.019097100000014	n/a	23	choice2	n/a	1	n/a
336.055406	1.5	n/a	n/a	23	outcome	n/a	n/a	1
337.555406	4.56687479999999	8.733566899999976	n/a	23	ITI_onset	n/a	n/a	n/a
342.1222808	1.1356670999999623	4.1666920999999855	1.1356670999999623	24	stim1	n/a	n/a	n/a
343.2579479	0.014382500000006985	3.031025000000023	n/a	24	choice1	0	n/a	n/a
346.2889729	1.2212204999999958	3.233424400000018	1.2212204999999958	24	stim2	n/a	1	n/a
347.5101934	0.012203900000022258	2.0122039000000225	n/a	24	choice2	n/a	1	n/a
349.5223973	1.5	n/a	n/a	24	outcome	n/a	n/a	1
351.0223973	3.566771299999964	10.833519299999985	n/a	24	ITI_onset	n/a	n/a	n/a
354.5891686	1.239016100000008	7.266748000000021	1.239016100000008	25	stim1	n/a	n/a	n/a
355.8281847	0.010981800000008661	6.027731900000013	n/a	25	choice1	0	n/a	n/a
361.8559166	2.0640581999999705	6.083375	2.0640581999999705	25	stim2	n/a	1	n/a
363.9199748	0.019316800000029617	4.01931680000003	n/a	25	choice2	n/a	1	n/a
367.9392916	1.5	n/a	n/a	25	outcome	n/a	n/a	1
369.4392916	1.0	1.0	n/a	25	ITI_onset	n/a	n/a	n/a
