onset	duration	duration2fb	response_time	trial	event	choice1	state	reward
0.0	0.23510646800000176	2.26669355	0.23510646800000176	1	stim1	n/a	n/a	n/a
0.23510646800000146	0.01533600899999874	2.0315870819999984	n/a	1	choice1	0	n/a	n/a
2.2666935499999994	0.2338964040000028	3.7499987160000017	0.2338964040000028	1	stim2	n/a	0	n/a
2.5005899540000023	0.016102311999999074	3.5161023119999992	n/a	1	choice2	n/a	0	n/a
6.016692266	1.5	n/a	n/a	1	outcome	n/a	n/a	1
7.516692266	2.066779011999999	5.333468712000002	n/a	1	ITI_onset	n/a	n/a	n/a
9.583471278000001	0.24267225099999995	3.266689700000003	0.24267225099999995	2	stim1	n/a	n/a	n/a
9.826143529	0.007337694000001648	3.0240174490000027	n/a	2	choice1	0	n/a	n/a
12.850160978000002	0.7374512059999979	7.250051648999997	0.7374512059999979	2	stim2	n/a	1	n/a
13.587612184000001	0.012600443000002997	6.512600442999999	n/a	2	choice2	n/a	1	n/a
20.100212627	1.5	n/a	n/a	2	outcome	n/a	n/a	0
21.600212627	5.066842851000001	12.833646435999995	n/a	2	ITI_onset	n/a	n/a	n/a
26.667055477999998	0.23297859099999915	7.766803584999995	0.23297859099999915	3	stim1	n/a	n/a	n/a
26.900034068999997	0.017058622000004107	7.533824993999995	n/a	3	choice1	0	n/a	n/a
34.433859063	0.33609222600000066	2.349998332000003	0.33609222600000066	3	stim2	n/a	1	n/a
34.76995128899999	0.013906106000002182	2.013906106000002	n/a	3	choice2	n/a	1	n/a
36.783857395	1.5	n/a	n/a	3	outcome	n/a	n/a	0
38.283857395	6.066824244000003	11.300229500999995	n/a	3	ITI_onset	n/a	n/a	n/a
44.350681639	0.20543457099999068	5.233405256999991	0.20543457099999068	4	stim1	n/a	n/a	n/a
44.556116209999985	0.011265908000008495	5.027970686000001	n/a	4	choice1	0	n/a	n/a
49.584086896	0.2654068149999948	4.783329997000008	0.2654068149999948	4	stim2	n/a	0	n/a
49.849493710999994	0.017923182000013183	4.517923182000013	n/a	4	choice2	n/a	0	n/a
54.367416893	1.5	n/a	n/a	4	outcome	n/a	n/a	0
55.867416893	3.5668662690000055	6.8335501950000035	n/a	4	ITI_onset	n/a	n/a	n/a
59.434283162000014	0.23665690200000244	3.266683925999998	0.23665690200000244	5	stim1	n/a	n/a	n/a
59.67094006400001	0.013303960999997798	3.0300270239999954	n/a	5	choice1	0	n/a	n/a
62.70096708800001	0.25510523600000307	5.266677188999995	0.25510523600000307	5	stim2	n/a	0	n/a
62.956072324000004	0.011571952999991482	5.011571952999992	n/a	5	choice2	n/a	0	n/a
67.967644277	1.5	n/a	n/a	5	outcome	n/a	n/a	1
69.467644277	4.566832585000011	6.8168656279999995	n/a	5	ITI_onset	n/a	n/a	n/a
74.03447686200002	0.22903337399999146	2.2500330429999886	0.22903337399999146	6	stim1	n/a	n/a	n/a
74.263510236	0.004308685999989393	2.020999668999997	n/a	6	choice1	0	n/a	n/a
76.28450990500001	0.6860270400000008	3.1999966640000057	0.6860270400000008	6	stim2	n/a	1	n/a
76.970536945	0.013969624000004842	2.513969624000005	n/a	6	choice2	n/a	1	n/a
79.484506569	1.5	n/a	n/a	6	outcome	n/a	n/a	0
80.984506569	4.566808203999987	7.800221160000001	n/a	6	ITI_onset	n/a	n/a	n/a
85.55131477299999	0.21164368400000966	3.2334129560000147	0.21164368400000966	7	stim1	n/a	n/a	n/a
85.762958457	0.004989747999992687	3.021769272000005	n/a	7	choice1	1	n/a	n/a
88.78472772900001	0.22314345800000593	3.233304845999999	0.22314345800000593	7	stim2	n/a	1	n/a
89.00787118700002	0.010161387999993167	3.010161387999993	n/a	7	choice2	n/a	1	n/a
92.018032575	1.5	n/a	n/a	7	outcome	n/a	n/a	0
93.518032575	3.566782860999985	9.850202682999996	n/a	7	ITI_onset	n/a	n/a	n/a
97.08481543599999	0.2471791920000105	6.283419822000011	0.2471791920000105	8	stim1	n/a	n/a	n/a
97.331994628	0.01948131600000488	6.03624063	n/a	8	choice1	0	n/a	n/a
103.368235258	0.24355477599998995	4.750025343000001	0.24355477599998995	8	stim2	n/a	0	n/a
103.611790034	0.006470567000011215	4.506470567000012	n/a	8	choice2	n/a	0	n/a
108.118260601	1.5	n/a	n/a	8	outcome	n/a	n/a	1
109.618260601	7.0673066379999945	10.333599277999994	n/a	8	ITI_onset	n/a	n/a	n/a
116.68556723900001	0.23537603300000773	3.2662926399999996	0.23537603300000773	9	stim1	n/a	n/a	n/a
116.920943272	0.014140289999981178	3.030916606999992	n/a	9	choice1	0	n/a	n/a
119.951859879	0.22903465700001108	2.2500086620000075	0.22903465700001108	9	stim2	n/a	0	n/a
120.180894536	0.020974004999996396	2.0209740049999962	n/a	9	choice2	n/a	0	n/a
122.201868541	1.5	n/a	n/a	9	outcome	n/a	n/a	0
123.701868541	3.066743722999992	8.816830981000006	n/a	9	ITI_onset	n/a	n/a	n/a
126.768612264	0.22535955400002422	5.750087258000014	0.22535955400002422	10	stim1	n/a	n/a	n/a
126.99397181800002	0.007979296999983489	5.52472770399999	n/a	10	choice1	0	n/a	n/a
132.518699522	0.23810147100000176	2.2500503659999813	0.23810147100000176	10	stim2	n/a	0	n/a
132.756800993	0.01194889499997953	2.0119488949999793	n/a	10	choice2	n/a	0	n/a
134.76874988799997	1.5	n/a	n/a	10	outcome	n/a	n/a	1
136.26874988799997	3.0667315320000053	11.416845994000003	n/a	10	ITI_onset	n/a	n/a	n/a
139.33548141999998	0.3273776530000032	8.350114461999997	0.3273776530000032	11	stim1	n/a	n/a	n/a
139.662859073	0.005942207000014605	8.022736808999994	n/a	11	choice1	0	n/a	n/a
147.68559588199997	0.24228825199999846	2.250032081000012	0.24228825199999846	11	stim2	n/a	0	n/a
147.92788413399998	0.007743829000013648	2.0077438290000136	n/a	11	choice2	n/a	0	n/a
149.935627963	1.5	n/a	n/a	11	outcome	n/a	n/a	1
151.435627963	2.5667671409999895	5.400180353999982	n/a	11	ITI_onset	n/a	n/a	n/a
154.002395104	0.3075174709999992	2.8334132129999925	0.3075174709999992	12	stim1	n/a	n/a	n/a
154.30991257499997	0.009127765999990515	2.5258957419999932	n/a	12	choice1	0	n/a	n/a
156.835808317	0.3931785400000226	2.399939754000021	0.3931785400000226	12	stim2	n/a	0	n/a
157.228986857	0.00676121399999829	2.006761213999998	n/a	12	choice2	n/a	0	n/a
159.235748071	1.5	n/a	n/a	12	outcome	n/a	n/a	0
160.735748071	2.566768744999979	5.333497582999989	n/a	12	ITI_onset	n/a	n/a	n/a
163.30251681599998	0.23183365099999356	2.76672883800001	0.23183365099999356	13	stim1	n/a	n/a	n/a
163.53435046699997	0.01815897099999711	2.5348951870000165	n/a	13	choice1	0	n/a	n/a
166.06924565399999	0.289582098999992	6.300013601999992	0.289582098999992	13	stim2	n/a	0	n/a
166.35882775299999	0.010431502999999794	6.0104315029999995	n/a	13	choice2	n/a	0	n/a
172.369259256	1.5	n/a	n/a	13	outcome	n/a	n/a	1
173.869259256	2.066772916000016	5.833506246000004	n/a	13	ITI_onset	n/a	n/a	n/a
175.93603217199998	0.24493743099999846	3.766733329999988	0.24493743099999846	14	stim1	n/a	n/a	n/a
176.180969603	0.005060323999990942	3.5217958989999896	n/a	14	choice1	0	n/a	n/a
179.70276550199998	0.26100381399999606	2.7666698099999922	0.26100381399999606	14	stim2	n/a	0	n/a
179.96376931599997	0.005665995999996085	2.5056659959999963	n/a	14	choice2	n/a	0	n/a
182.46943531199997	1.5	n/a	n/a	14	outcome	n/a	n/a	1
183.96943531199997	3.0667658590000357	10.900269217000023	n/a	14	ITI_onset	n/a	n/a	n/a
187.03620117100002	0.29773270299998694	7.833503357999987	0.29773270299998694	15	stim1	n/a	n/a	n/a
187.333933874	0.018954558999976143	7.535770655	n/a	15	choice1	0	n/a	n/a
194.869704529	0.23764721600001212	3.7499887719999823	0.23764721600001212	15	stim2	n/a	0	n/a
195.10735174500002	0.012341555999970296	3.51234155599997	n/a	15	choice2	n/a	0	n/a
198.61969330099998	1.5	n/a	n/a	15	outcome	n/a	n/a	1
200.11969330099998	3.5667677830000177	7.383496107999992	n/a	15	ITI_onset	n/a	n/a	n/a
203.686461084	0.29318502099998295	3.8167283249999744	0.29318502099998295	16	stim1	n/a	n/a	n/a
203.97964610499997	0.00679104699997697	3.5235433039999915	n/a	16	choice1	0	n/a	n/a
207.50318940899996	0.2536212079999968	2.7666479960000143	0.2536212079999968	16	stim2	n/a	0	n/a
207.75681061699996	0.013026788000017404	2.513026788000017	n/a	16	choice2	n/a	0	n/a
210.26983740499998	1.5	n/a	n/a	16	outcome	n/a	n/a	1
211.76983740499998	3.566787994000013	8.33353608000002	n/a	16	ITI_onset	n/a	n/a	n/a
215.336625399	0.23222791499999584	4.766748086000007	0.23222791499999584	17	stim1	n/a	n/a	n/a
215.568853314	0.01780512699999963	4.534520171000011	n/a	17	choice1	0	n/a	n/a
220.10337348500002	0.23536952499998734	4.7500192479999965	0.23536952499998734	17	stim2	n/a	0	n/a
220.33874301	0.014649723000009544	4.5146497230000096	n/a	17	choice2	n/a	0	n/a
224.853392733	1.5	n/a	n/a	17	outcome	n/a	n/a	1
226.353392733	2.1001612989999705	5.883516960000008	n/a	17	ITI_onset	n/a	n/a	n/a
228.45355403199997	0.25907290900003865	3.7833556610000376	0.25907290900003865	18	stim1	n/a	n/a	n/a
228.71262694100002	0.007528892000002088	3.524282751999999	n/a	18	choice1	0	n/a	n/a
232.236909693	0.23191481300001032	2.7500044909999706	0.23191481300001032	18	stim2	n/a	0	n/a
232.46882450600003	0.01808967799996026	2.5180896779999604	n/a	18	choice2	n/a	0	n/a
234.98691418399997	1.5	n/a	n/a	18	outcome	n/a	n/a	0
236.48691418399997	3.5667815780000236	6.300138073000009	n/a	18	ITI_onset	n/a	n/a	n/a
240.053695762	0.2111810889999906	2.7333564949999856	0.2111810889999906	19	stim1	n/a	n/a	n/a
240.26487685099997	0.005492121999966912	2.522175405999995	n/a	19	choice1	0	n/a	n/a
242.787052257	0.2527210389999964	3.2666836050000274	0.2527210389999964	19	stim2	n/a	0	n/a
243.039773296	0.013962566000031075	3.013962566000031	n/a	19	choice2	n/a	0	n/a
246.05373586200002	1.5	n/a	n/a	19	outcome	n/a	n/a	0
247.55373586200002	2.566769708000007	6.300196137999941	n/a	19	ITI_onset	n/a	n/a	n/a
250.12050557	0.20677680499997222	3.733426429999934	0.20677680499997222	20	stim1	n/a	n/a	n/a
250.327282375	0.009897368999954779	3.526649624999962	n/a	20	choice1	1	n/a	n/a
253.85393199999996	0.2213168140000198	4.233310621000012	0.2213168140000198	20	stim2	n/a	1	n/a
254.075248814	0.011993806999991648	4.011993806999992	n/a	20	choice2	n/a	1	n/a
258.087242621	1.5	n/a	n/a	20	outcome	n/a	n/a	1
259.587242621	2.56680210900004	6.350179905000027	n/a	20	ITI_onset	n/a	n/a	n/a
262.15404473000007	0.2546025399999926	3.783377795999986	0.2546025399999926	21	stim1	n/a	n/a	n/a
262.40864727	0.012074648999958299	3.5287752559999936	n/a	21	choice1	1	n/a	n/a
265.93742252600003	0.2047814190000063	2.7166953469999715	0.2047814190000063	21	stim2	n/a	1	n/a
266.142203945	0.01191392799996538	2.5119139279999656	n/a	21	choice2	n/a	1	n/a
268.654117873	1.5	n/a	n/a	21	outcome	n/a	n/a	1
270.154117873	2.566715172000055	6.416841503000003	n/a	21	ITI_onset	n/a	n/a	n/a
272.72083304500006	0.31479998599999814	3.8501263309999487	0.31479998599999814	22	stim1	n/a	n/a	n/a
273.03563303100003	0.018563822999945842	3.5353263449999504	n/a	22	choice1	1	n/a	n/a
276.570959376	0.19153071100002853	2.699949827000033	0.19153071100002853	22	stim2	n/a	1	n/a
276.762490087	0.008419116000004579	2.5084191160000047	n/a	22	choice2	n/a	1	n/a
279.27090920300003	1.5	n/a	n/a	22	outcome	n/a	n/a	1
280.77090920300003	2.5667799739999464	7.333523248000012	n/a	22	ITI_onset	n/a	n/a	n/a
283.33768917699996	0.23754327600001124	4.766743274000066	0.23754327600001124	23	stim1	n/a	n/a	n/a
283.575232453	0.012449024000030477	4.529199998000054	n/a	23	choice1	1	n/a	n/a
288.10443245100004	0.18929311999992934	3.6999928139999394	0.18929311999992934	23	stim2	n/a	1	n/a
288.293725571	0.010699694000009913	3.5106996940000097	n/a	23	choice2	n/a	1	n/a
291.80442526499996	1.5	n/a	n/a	23	outcome	n/a	n/a	1
293.30442526499996	5.5668906500000155	11.316930109000067	n/a	23	ITI_onset	n/a	n/a	n/a
298.871315915	0.22249608000001173	5.7500394590000505	0.22249608000001173	24	stim1	n/a	n/a	n/a
299.093811995	0.010787272999994458	5.527543379000039	n/a	24	choice1	1	n/a	n/a
304.6213553740001	0.1973144420000026	3.7166998369999344	0.1973144420000026	24	stim2	n/a	1	n/a
304.81866981600007	0.019385394999932033	3.519385394999932	n/a	24	choice2	n/a	1	n/a
308.338055211	1.5	n/a	n/a	24	outcome	n/a	n/a	1
309.838055211	3.0667703500000063	5.3334574840000135	n/a	24	ITI_onset	n/a	n/a	n/a
312.904825561	0.24028131700004451	2.266687134000007	0.24028131700004451	25	stim1	n/a	n/a	n/a
313.14510687800004	0.00973632699996233	2.0264058169999624	n/a	25	choice1	1	n/a	n/a
315.171512695	0.3520723130000406	3.8666784080000363	0.3520723130000406	25	stim2	n/a	1	n/a
315.52358500800005	0.014606094999995548	3.5146060949999955	n/a	25	choice2	n/a	1	n/a
319.03819110300003	1.5	n/a	n/a	25	outcome	n/a	n/a	0
320.53819110300003	1.0	1.0	n/a	25	ITI_onset	n/a	n/a	n/a
