onset	duration	duration2fb	response_time	trial	event	choice1	state	reward
0.0	0.6758983819999994	5.716730362000002	0.6758983819999994	1	stim1	n/a	n/a	n/a
0.6758983819999997	0.02439858500000264	5.040831980000003	n/a	1	choice1	0	n/a	n/a
5.716730362000003	0.6501017420000026	5.166689123	0.6501017420000026	1	stim2	n/a	0	n/a
6.366832104000004	0.01658738099999755	4.516587380999997	n/a	1	choice2	n/a	0	n/a
10.883419485000001	1.5	n/a	n/a	1	outcome	n/a	n/a	0
12.383419485000001	4.566826394000003	8.566896648999995	n/a	1	ITI_onset	n/a	n/a	n/a
16.950245879000004	1.9671572689999957	4.000070254999992	1.9671572689999957	2	stim1	n/a	n/a	n/a
18.917403148000002	0.0162332150000002	2.032912985999996	n/a	2	choice1	0	n/a	n/a
20.950316133999994	0.3731095550000027	3.3833450590000065	0.3731095550000027	2	stim2	n/a	0	n/a
21.323425689	0.010235504000003857	3.0102355040000037	n/a	2	choice2	n/a	0	n/a
24.333661193	1.5	n/a	n/a	2	outcome	n/a	n/a	0
25.833661193	2.5667819630000013	6.150150824999997	n/a	2	ITI_onset	n/a	n/a	n/a
28.400443156000005	0.560551188999998	3.583368861999996	0.560551188999998	3	stim1	n/a	n/a	n/a
28.960994345000007	0.006140146999998251	3.022817672999998	n/a	3	choice1	1	n/a	n/a
31.983812018	0.22920201500000256	3.750060231000003	0.22920201500000256	3	stim2	n/a	1	n/a
32.21301403300001	0.02085821600000054	3.5208582160000006	n/a	3	choice2	n/a	1	n/a
35.733872249	1.5	n/a	n/a	3	outcome	n/a	n/a	1
37.233872249	7.066838102999995	10.300235884999994	n/a	3	ITI_onset	n/a	n/a	n/a
44.300710351999996	1.204354949000015	3.233397782	1.204354949000015	4	stim1	n/a	n/a	n/a
45.505065301000016	0.012317186999993282	2.029042832999985	n/a	4	choice1	1	n/a	n/a
47.53410813400001	0.29632723599999733	2.816654845000012	0.29632723599999733	4	stim2	n/a	1	n/a
47.830435370000004	0.020327609000014492	2.5203276090000144	n/a	4	choice2	n/a	1	n/a
50.35076297900001	1.5	n/a	n/a	4	outcome	n/a	n/a	1
51.85076297900001	7.566864569999991	11.883581009000002	n/a	4	ITI_onset	n/a	n/a	n/a
59.417627549	0.28131595400000514	4.316716439000011	0.28131595400000514	5	stim1	n/a	n/a	n/a
59.69894350300001	0.01876819199998863	4.035400485000006	n/a	5	choice1	1	n/a	n/a
63.73434398800002	0.4074879639999999	7.416639798999983	0.4074879639999999	5	stim2	n/a	1	n/a
64.14183195200002	0.009151834999982384	7.009151834999982	n/a	5	choice2	n/a	1	n/a
71.150983787	1.5	n/a	n/a	5	outcome	n/a	n/a	1
72.650983787	4.066937392000007	7.066967547000007	n/a	5	ITI_onset	n/a	n/a	n/a
76.717921179	0.47077671499999996	3.0000301550000006	0.47077671499999996	6	stim1	n/a	n/a	n/a
77.188697894	0.012544957000005524	2.5292534400000006	n/a	6	choice1	1	n/a	n/a
79.717951334	0.4029361070000014	4.916665143000006	0.4029361070000014	6	stim2	n/a	1	n/a
80.12088744100001	0.013729036000004271	4.513729036000004	n/a	6	choice2	n/a	1	n/a
84.63461647700001	1.5	n/a	n/a	6	outcome	n/a	n/a	1
86.13461647700001	2.566837943000006	7.866905086999992	n/a	6	ITI_onset	n/a	n/a	n/a
88.70145442000002	1.2742567099999869	5.300067143999986	1.2742567099999869	7	stim1	n/a	n/a	n/a
89.97571113000001	0.009074522000009893	4.025810433999999	n/a	7	choice1	1	n/a	n/a
94.001521564	0.5352967039999931	4.549992958000017	0.5352967039999931	7	stim2	n/a	1	n/a
94.53681826799999	0.014696254000024054	4.014696254000024	n/a	7	choice2	n/a	1	n/a
98.55151452200002	1.5	n/a	n/a	7	outcome	n/a	n/a	0
100.05151452200002	6.06690402799999	9.066939636999988	n/a	7	ITI_onset	n/a	n/a	n/a
106.11841855000002	0.4632712349999929	3.0000356089999984	0.4632712349999929	8	stim1	n/a	n/a	n/a
106.58168978500001	0.020028943000012078	2.536764374000006	n/a	8	choice1	1	n/a	n/a
109.11845415900001	0.5044259420000017	4.016621224999995	0.5044259420000017	8	stim2	n/a	1	n/a
109.62288010100002	0.01219528299999365	3.512195282999994	n/a	8	choice2	n/a	1	n/a
113.135075384	1.5	n/a	n/a	8	outcome	n/a	n/a	1
114.635075384	6.566938674000005	9.566905953000008	n/a	8	ITI_onset	n/a	n/a	n/a
121.202014058	0.9623975320000027	2.9999672790000043	0.9623975320000027	9	stim1	n/a	n/a	n/a
122.16441159000001	0.020898958000005224	2.0375697470000014	n/a	9	choice1	1	n/a	n/a
124.201981337	0.3364159179999842	6.350019520000002	0.3364159179999842	9	stim2	n/a	1	n/a
124.538397255	0.013603602000017418	6.013603602000018	n/a	9	choice2	n/a	1	n/a
130.55200085700002	1.5	n/a	n/a	9	outcome	n/a	n/a	0
132.05200085700002	2.566880128999997	5.916975038000004	n/a	9	ITI_onset	n/a	n/a	n/a
134.61888098600002	0.31691629799999643	3.3500949090000067	0.31691629799999643	10	stim1	n/a	n/a	n/a
134.93579728400002	0.016385917000006883	3.03317861100001	n/a	10	choice1	0	n/a	n/a
137.96897589500003	0.2837890159999952	4.799934972999966	0.2837890159999952	10	stim2	n/a	0	n/a
138.252764911	0.016145956999971532	4.516145956999972	n/a	10	choice2	n/a	0	n/a
142.76891086799998	1.5	n/a	n/a	10	outcome	n/a	n/a	0
144.26891086799998	2.566809071000025	6.333525494000002	n/a	10	ITI_onset	n/a	n/a	n/a
146.835719939	0.7410429719999957	3.766716422999976	0.7410429719999957	11	stim1	n/a	n/a	n/a
147.576762911	0.008953259000001709	3.0256734509999808	n/a	11	choice1	0	n/a	n/a
150.602436362	0.617920826000016	3.1333793040000018	0.617920826000016	11	stim2	n/a	1	n/a
151.220357188	0.015458477999985917	2.515458477999986	n/a	11	choice2	n/a	1	n/a
153.73581566599998	1.5	n/a	n/a	11	outcome	n/a	n/a	0
155.23581566599998	5.5667927100000085	10.100197646000016	n/a	11	ITI_onset	n/a	n/a	n/a
160.802608376	0.49862520400001087	4.533404936000006	0.49862520400001087	12	stim1	n/a	n/a	n/a
161.30123358	0.018067559999995864	4.034779731999995	n/a	12	choice1	1	n/a	n/a
165.336013312	6.450784023999994	8.966803905999987	6.450784023999994	12	stim2	n/a	1	n/a
171.786797336	0.01601988199999323	2.516019881999993	n/a	12	choice2	n/a	1	n/a
174.302817218	1.5	n/a	n/a	12	outcome	n/a	n/a	0
175.802817218	2.5667510050000275	8.516876583000034	n/a	12	ITI_onset	n/a	n/a	n/a
178.36956822300002	0.4261364969999995	5.950125578000007	0.4261364969999995	13	stim1	n/a	n/a	n/a
178.79570472	0.007190773999987869	5.523989081000007	n/a	13	choice1	0	n/a	n/a
184.31969380100003	0.35791060499998273	2.366737146999978	0.35791060499998273	13	stim2	n/a	0	n/a
184.677604406	0.008826541999995243	2.008826541999995	n/a	13	choice2	n/a	0	n/a
186.686430948	1.5	n/a	n/a	13	outcome	n/a	n/a	1
188.186430948	7.066736890000029	9.433442277999973	n/a	13	ITI_onset	n/a	n/a	n/a
195.25316783800002	0.3314803819999506	2.366705387999944	0.3314803819999506	14	stim1	n/a	n/a	n/a
195.58464822	0.018531440000020667	2.0352250059999935	n/a	14	choice1	0	n/a	n/a
197.61987322599998	0.6704386550000345	4.683336493000039	0.6704386550000345	14	stim2	n/a	0	n/a
198.290311881	0.012897838000004413	4.012897838000004	n/a	14	choice2	n/a	0	n/a
202.30320971900002	1.5	n/a	n/a	14	outcome	n/a	n/a	1
203.80320971900002	3.566869221000001	8.133571465000015	n/a	14	ITI_onset	n/a	n/a	n/a
207.37007894	0.5438406199999736	4.566702244000014	0.5438406199999736	15	stim1	n/a	n/a	n/a
207.91391955999998	0.006116409000038402	4.022861624000041	n/a	15	choice1	0	n/a	n/a
211.93678118400004	0.4279993929999764	3.9333365730000076	0.4279993929999764	15	stim2	n/a	0	n/a
212.364780577	0.005337180000031367	3.5053371800000312	n/a	15	choice2	n/a	0	n/a
215.87011775700003	1.5	n/a	n/a	15	outcome	n/a	n/a	1
217.37011775700003	4.566830242999975	7.50020290699997	n/a	15	ITI_onset	n/a	n/a	n/a
221.936948	0.40072642399996405	2.933372663999995	0.40072642399996405	16	stim1	n/a	n/a	n/a
222.33767442399997	0.015916905000020052	2.532646240000031	n/a	16	choice1	0	n/a	n/a
224.87032066400002	0.29807015200000025	6.316745953000005	0.29807015200000025	16	stim2	n/a	0	n/a
225.168390816	0.018675801000004866	6.018675801000005	n/a	16	choice2	n/a	0	n/a
231.187066617	1.5	n/a	n/a	16	outcome	n/a	n/a	0
232.687066617	6.066814523999986	12.183581265000015	n/a	16	ITI_onset	n/a	n/a	n/a
238.75388114100002	0.5815094950000348	6.116766741000029	0.5815094950000348	17	stim1	n/a	n/a	n/a
239.33539063600006	0.01849518899997929	5.535257245999993	n/a	17	choice1	0	n/a	n/a
244.87064788200001	0.4229656909999903	7.433352292999975	0.4229656909999903	17	stim2	n/a	0	n/a
245.29361357300002	0.010386601999984122	7.0103866019999845	n/a	17	choice2	n/a	0	n/a
252.304000175	1.5	n/a	n/a	17	outcome	n/a	n/a	1
253.804000175	5.066877080000006	9.933621125000005	n/a	17	ITI_onset	n/a	n/a	n/a
258.870877255	0.3407528390000225	4.866744044999999	0.3407528390000225	18	stim1	n/a	n/a	n/a
259.21163009400004	0.009238451999961398	4.525991205999977	n/a	18	choice1	0	n/a	n/a
263.7376213	0.5010552770000067	5.016673194000032	0.5010552770000067	18	stim2	n/a	0	n/a
264.23867657700004	0.015617917000025044	4.515617917000025	n/a	18	choice2	n/a	0	n/a
268.754294494	1.5	n/a	n/a	18	outcome	n/a	n/a	1
270.254294494	2.100140543999965	4.900186675000004	n/a	18	ITI_onset	n/a	n/a	n/a
272.354435038	0.7729200890000211	2.8000461310000393	0.7729200890000211	19	stim1	n/a	n/a	n/a
273.12735512700004	0.010410019999952055	2.027126042000018	n/a	19	choice1	0	n/a	n/a
275.15448116900006	0.4273439949999447	2.9333340069999685	0.4273439949999447	19	stim2	n/a	0	n/a
275.581825164	0.005990012000023853	2.505990012000024	n/a	19	choice2	n/a	0	n/a
278.087815176	1.5	n/a	n/a	19	outcome	n/a	n/a	1
279.587815176	5.066813081	10.433559531000036	n/a	19	ITI_onset	n/a	n/a	n/a
284.654628257	0.3347018740000203	5.3667464500000355	0.3347018740000203	20	stim1	n/a	n/a	n/a
284.98933013100003	0.015362879999971484	5.032044576000015	n/a	20	choice1	0	n/a	n/a
290.02137470700006	0.42717140299995665	2.9333596709999257	0.42717140299995665	20	stim2	n/a	0	n/a
290.44854611	0.006188267999968957	2.5061882679999687	n/a	20	choice2	n/a	0	n/a
292.95473437799996	1.5	n/a	n/a	20	outcome	n/a	n/a	1
294.45473437799996	2.5668087500000256	5.700154530000058	n/a	20	ITI_onset	n/a	n/a	n/a
297.021543128	0.6041898640000145	3.1333457800000324	0.6041898640000145	21	stim1	n/a	n/a	n/a
297.625732992	0.01243107200000668	2.529155916000018	n/a	21	choice1	0	n/a	n/a
300.15488890800003	0.7130020030000014	6.733368428999966	0.7130020030000014	21	stim2	n/a	1	n/a
300.867890911	0.020366425999964122	6.020366425999964	n/a	21	choice2	n/a	1	n/a
306.88825733699997	1.5	n/a	n/a	21	outcome	n/a	n/a	0
308.38825733699997	2.566810835000011	5.116831062000012	n/a	21	ITI_onset	n/a	n/a	n/a
310.955068172	0.5145559030000004	2.550020227000001	0.5145559030000004	22	stim1	n/a	n/a	n/a
311.469624075	0.018776210999989416	2.0354643240000003	n/a	22	choice1	1	n/a	n/a
313.505088399	0.3407024720000336	4.8500368439999875	0.3407024720000336	22	stim2	n/a	0	n/a
313.845790871	0.009334371999953874	4.5093343719999535	n/a	22	choice2	n/a	0	n/a
318.355125243	1.5	n/a	n/a	22	outcome	n/a	n/a	1
319.855125243	5.066857031000021	10.53359838000004	n/a	22	ITI_onset	n/a	n/a	n/a
324.921982274	0.9407068350000191	5.466741349000018	0.9407068350000191	23	stim1	n/a	n/a	n/a
325.86268910900003	0.009289458999934141	4.526034513999999	n/a	23	choice1	1	n/a	n/a
330.38872362300003	1.5699189239999396	4.083357634000015	1.5699189239999396	23	stim2	n/a	1	n/a
331.95864254699995	0.013438710000074934	2.513438710000075	n/a	23	choice2	n/a	1	n/a
334.47208125700007	1.5	n/a	n/a	23	outcome	n/a	n/a	0
335.97208125700007	7.5668273559999655	9.850223068999941	n/a	23	ITI_onset	n/a	n/a	n/a
343.538908613	0.2588485980000114	2.2833957129999765	0.2588485980000114	24	stim1	n/a	n/a	n/a
343.79775721100003	0.007860606999951414	2.0245471149999648	n/a	24	choice1	0	n/a	n/a
345.822304326	0.40696217000001345	2.4166930530000243	0.40696217000001345	24	stim2	n/a	0	n/a
346.229266496	0.009730883000011091	2.009730883000011	n/a	24	choice2	n/a	0	n/a
348.238997379	1.5	n/a	n/a	24	outcome	n/a	n/a	0
349.738997379	7.066816448999976	13.233572779999987	n/a	24	ITI_onset	n/a	n/a	n/a
356.805813828	1.6384251970000332	6.166756331000012	1.6384251970000332	25	stim1	n/a	n/a	n/a
358.444239025	0.011600835999997798	4.528331133999978	n/a	25	choice1	1	n/a	n/a
362.972570159	0.3169371500000125	2.833353543999954	0.3169371500000125	25	stim2	n/a	1	n/a
363.28950730900004	0.016416393999941648	2.5164163939999415	n/a	25	choice2	n/a	1	n/a
365.80592370299996	1.5	n/a	n/a	25	outcome	n/a	n/a	1
367.30592370299996	1.0	1.0	n/a	25	ITI_onset	n/a	n/a	n/a
