onset	duration	duration2fb	response_time	trial	event	choice1	state	reward
0.0	0.738439022999999	3.2667133749999993	0.738439022999999	1	stim1	n/a	n/a	n/a
0.738439022999998	0.011926449999999022	2.5282743520000004	n/a	1	choice1	1	n/a	n/a
3.2667133749999984	0.4794935439999972	2.999960060000001	0.4794935439999972	1	stim2	n/a	0	n/a
3.746206918999995	0.02046651600000405	2.520466516000004	n/a	1	choice2	n/a	0	n/a
6.266673435000001	1.5	n/a	n/a	1	outcome	n/a	n/a	1
7.766673435000001	3.566800730000003	7.083568882	n/a	1	ITI_onset	n/a	n/a	n/a
11.333474165000005	0.4806708870000002	3.516768151999997	0.4806708870000002	2	stim1	n/a	n/a	n/a
11.814145052	0.019346275999996578	3.036097264999997	n/a	2	choice1	1	n/a	n/a
14.850242317000003	0.5669524689999962	3.583311117999998	0.5669524689999962	2	stim2	n/a	0	n/a
15.417194785999996	0.016358649000001606	3.0163586490000016	n/a	2	choice2	n/a	0	n/a
18.433553435	1.5	n/a	n/a	2	outcome	n/a	n/a	0
19.933553435	3.5668085890000003	6.466799895999997	n/a	2	ITI_onset	n/a	n/a	n/a
23.500362023999998	0.36992527600000175	2.8999913069999965	0.36992527600000175	3	stim1	n/a	n/a	n/a
23.8702873	0.013401817999998457	2.5300660309999947	n/a	3	choice1	1	n/a	n/a
26.400353330999998	0.6117271040000051	4.633353639000008	0.6117271040000051	3	stim2	n/a	1	n/a
27.012080435	0.02162653500000306	4.021626535000003	n/a	3	choice2	n/a	1	n/a
31.033706970000004	1.5	n/a	n/a	3	outcome	n/a	n/a	0
32.533706970000004	4.066848530000003	8.866908776999997	n/a	3	ITI_onset	n/a	n/a	n/a
36.600555500000006	1.7758881479999982	4.800060246999994	1.7758881479999982	4	stim1	n/a	n/a	n/a
38.376443648	0.007473078999995778	3.024172098999996	n/a	4	choice1	1	n/a	n/a
41.400615746999996	0.3186945019999985	3.8333557890000085	0.3186945019999985	4	stim2	n/a	0	n/a
41.719310248999996	0.014661287000009907	3.51466128700001	n/a	4	choice2	n/a	0	n/a
45.233971536000006	1.5	n/a	n/a	4	outcome	n/a	n/a	1
46.733971536000006	5.066795435999985	14.017001534999988	n/a	4	ITI_onset	n/a	n/a	n/a
51.800766972	1.4164219750000047	8.950206099000003	1.4164219750000047	5	stim1	n/a	n/a	n/a
53.217188947000004	0.016988704000003053	7.533784123999998	n/a	5	choice1	1	n/a	n/a
60.750973071	0.4244474760000012	8.433333687000006	0.4244474760000012	5	stim2	n/a	0	n/a
61.175420546999995	0.00888621100000455	8.008886211000005	n/a	5	choice2	n/a	0	n/a
69.18430675799999	1.5	n/a	n/a	5	outcome	n/a	n/a	0
70.68430675799999	3.066877400999991	8.466977941000005	n/a	5	ITI_onset	n/a	n/a	n/a
73.75118415899999	0.37306688900000884	5.400100540000014	0.37306688900000884	6	stim1	n/a	n/a	n/a
74.12425104799999	0.010158190000001923	5.027033651000005	n/a	6	choice1	0	n/a	n/a
79.151284699	0.6761447569999873	3.6833300769999915	0.6761447569999873	6	stim2	n/a	1	n/a
79.827429456	0.007185320000004139	3.007185320000004	n/a	6	choice2	n/a	1	n/a
82.834614776	1.5	n/a	n/a	6	outcome	n/a	n/a	1
84.334614776	5.066797842	7.783483292000004	n/a	6	ITI_onset	n/a	n/a	n/a
89.401412618	0.681950628999999	2.7166854500000044	0.681950628999999	7	stim1	n/a	n/a	n/a
90.083363247	0.018063390000010258	2.0347348210000056	n/a	7	choice1	1	n/a	n/a
92.118098068	0.37576130299999205	6.383357570000007	0.37576130299999205	7	stim2	n/a	0	n/a
92.49385937099999	0.0075962670000153595	6.007596267000015	n/a	7	choice2	n/a	0	n/a
98.50145563800001	1.5	n/a	n/a	7	outcome	n/a	n/a	1
100.00145563800001	2.566832970000003	5.233575345999998	n/a	7	ITI_onset	n/a	n/a	n/a
102.56828860800002	0.6296124489999929	2.666742375999995	0.6296124489999929	8	stim1	n/a	n/a	n/a
103.19790105700002	0.020405885000000127	2.037129927000002	n/a	8	choice1	1	n/a	n/a
105.23503098400002	3.4552329040000043	7.466699645000015	3.4552329040000043	8	stim2	n/a	0	n/a
108.69026388800003	0.011466741000011098	4.011466741000011	n/a	8	choice2	n/a	0	n/a
112.70173062900002	1.5	n/a	n/a	8	outcome	n/a	n/a	0
114.20173062900002	3.066777631999983	6.9502088259999875	n/a	8	ITI_onset	n/a	n/a	n/a
117.26850826100002	0.8485962839999993	3.8834311940000044	0.8485962839999993	9	stim1	n/a	n/a	n/a
118.11710454500002	0.018137816000002204	3.034834910000005	n/a	9	choice1	1	n/a	n/a
121.15193945500002	7.886190410999989	11.400093962999993	7.886190410999989	9	stim2	n/a	0	n/a
129.03812986600002	0.013903552000003401	3.5139035520000035	n/a	9	choice2	n/a	0	n/a
132.552033418	1.5	n/a	n/a	9	outcome	n/a	n/a	0
134.052033418	4.066810193000012	7.666876149999997	n/a	9	ITI_onset	n/a	n/a	n/a
138.11884361100002	0.5629642609999864	3.6000659569999844	0.5629642609999864	10	stim1	n/a	n/a	n/a
138.681807872	0.020415188000013587	3.037101695999998	n/a	10	choice1	0	n/a	n/a
141.71890956800002	0.49195444999999016	3.9999911779999966	0.49195444999999016	10	stim2	n/a	1	n/a
142.210864018	0.008036728000006406	3.508036728000006	n/a	10	choice2	n/a	1	n/a
145.718900746	1.5	n/a	n/a	10	outcome	n/a	n/a	1
147.218900746	3.066839066000015	5.633525590000005	n/a	10	ITI_onset	n/a	n/a	n/a
150.28573981200003	0.5353393710000092	2.56668652399999	0.5353393710000092	11	stim1	n/a	n/a	n/a
150.82107918300002	0.014655190999968908	2.0313471529999805	n/a	11	choice1	0	n/a	n/a
152.852426336	0.4110854359999939	3.4166757290000094	0.4110854359999939	11	stim2	n/a	1	n/a
153.26351177200002	0.005590293000015663	3.0055902930000156	n/a	11	choice2	n/a	1	n/a
156.26910206500003	1.5	n/a	n/a	11	outcome	n/a	n/a	1
157.76910206500003	4.56687756199998	10.216924126999977	n/a	11	ITI_onset	n/a	n/a	n/a
162.335979627	0.6233135050000274	5.650046564999997	0.6233135050000274	12	stim1	n/a	n/a	n/a
162.95929313200003	0.009968916999961948	5.0267330599999696	n/a	12	choice1	0	n/a	n/a
167.986026192	0.5247875559999957	3.5333516820000077	0.5247875559999957	12	stim2	n/a	1	n/a
168.51081374799998	0.008564126000012039	3.008564126000012	n/a	12	choice2	n/a	1	n/a
171.519377874	1.5	n/a	n/a	12	outcome	n/a	n/a	1
173.019377874	2.5667733019999868	8.950149478000007	n/a	12	ITI_onset	n/a	n/a	n/a
175.586151176	0.3622340510000067	6.38337617600002	0.3622340510000067	13	stim1	n/a	n/a	n/a
175.948385227	0.004378946000011638	6.021142125000013	n/a	13	choice1	0	n/a	n/a
181.969527352	3.995893416000006	8.500092390999983	3.995893416000006	13	stim2	n/a	1	n/a
185.965420768	0.004198974999977508	4.504198974999977	n/a	13	choice2	n/a	1	n/a
190.46961974299998	1.5	n/a	n/a	13	outcome	n/a	n/a	1
191.96961974299998	5.066855748000002	7.950570851000026	n/a	13	ITI_onset	n/a	n/a	n/a
197.036475491	0.352348221000022	2.883715103000024	0.352348221000022	14	stim1	n/a	n/a	n/a
197.388823712	0.014337596999976086	2.531366882000002	n/a	14	choice1	0	n/a	n/a
199.92019059400002	0.5058657009999733	2.5163238419999834	0.5058657009999733	14	stim2	n/a	0	n/a
200.426056295	0.010458141000010072	2.01045814100001	n/a	14	choice2	n/a	0	n/a
202.436514436	1.5	n/a	n/a	14	outcome	n/a	n/a	0
203.936514436	3.0668138830000244	6.533477918000019	n/a	14	ITI_onset	n/a	n/a	n/a
207.00332831900002	0.43099824800001807	3.466664034999994	0.43099824800001807	15	stim1	n/a	n/a	n/a
207.43432656700006	0.01900462299992796	3.035665786999976	n/a	15	choice1	0	n/a	n/a
210.46999235400003	0.29036673800001156	2.3000373099999853	0.29036673800001156	15	stim2	n/a	1	n/a
210.76035909200004	0.009670571999973617	2.0096705719999735	n/a	15	choice2	n/a	1	n/a
212.770029664	1.5	n/a	n/a	15	outcome	n/a	n/a	1
214.270029664	3.5667665639999906	16.900304569	n/a	15	ITI_onset	n/a	n/a	n/a
217.836796228	10.301466803000018	13.33353800500001	10.301466803000018	16	stim1	n/a	n/a	n/a
228.138263031	0.015385015000007116	3.032071201999992	n/a	16	choice1	0	n/a	n/a
231.170334233	0.5149841739999829	3.033372856000002	0.5149841739999829	16	stim2	n/a	0	n/a
231.685318407	0.018388682000018888	2.518388682000019	n/a	16	choice2	n/a	0	n/a
234.20370708900003	1.5	n/a	n/a	16	outcome	n/a	n/a	0
235.70370708900003	3.5667580630000155	6.433495691999997	n/a	16	ITI_onset	n/a	n/a	n/a
239.27046515200004	0.33262404099997367	2.866737628999981	0.33262404099997367	17	stim1	n/a	n/a	n/a
239.60308919300002	0.017386819000006652	2.5341135880000074	n/a	17	choice1	0	n/a	n/a
242.13720278099998	0.46153377199999523	2.4666646770000225	0.46153377199999523	17	stim2	n/a	0	n/a
242.59873655299998	0.005130905000027269	2.005130905000027	n/a	17	choice2	n/a	0	n/a
244.60386745800002	1.5	n/a	n/a	17	outcome	n/a	n/a	1
246.10386745800002	6.600175831999979	11.666888179999951	n/a	17	ITI_onset	n/a	n/a	n/a
252.70404329000002	0.5361006339999731	5.066712347999972	0.5361006339999731	18	stim1	n/a	n/a	n/a
253.240143924	0.013891682000015863	4.530611713999999	n/a	18	choice1	1	n/a	n/a
257.77075563799997	0.38603498200001196	3.3999953170000228	0.38603498200001196	18	stim2	n/a	1	n/a
258.15679062	0.013960335000010673	3.013960335000011	n/a	18	choice2	n/a	1	n/a
261.170750955	1.5	n/a	n/a	18	outcome	n/a	n/a	1
262.670750955	6.566898093000054	13.433659140000003	n/a	18	ITI_onset	n/a	n/a	n/a
269.23764904800004	0.34347804999997605	6.866761046999949	0.34347804999997605	19	stim1	n/a	n/a	n/a
269.581127098	0.006475705999997444	6.523282996999973	n/a	19	choice1	0	n/a	n/a
276.104410095	0.516989505000005	2.5333465500000165	0.516989505000005	19	stim2	n/a	1	n/a
276.6213996	0.016357045000011568	2.0163570450000114	n/a	19	choice2	n/a	1	n/a
278.637756645	1.5	n/a	n/a	19	outcome	n/a	n/a	0
280.137756645	3.0667766689999842	9.616841807999997	n/a	19	ITI_onset	n/a	n/a	n/a
283.204533314	0.5246287609999999	6.550065139000013	0.5246287609999999	20	stim1	n/a	n/a	n/a
283.729162075	0.008741849999991246	6.025436378000013	n/a	20	choice1	0	n/a	n/a
289.754598453	0.34382066699996355	3.3500009149999825	0.34382066699996355	20	stim2	n/a	1	n/a
290.09841911999996	0.006180248000018765	3.006180248000019	n/a	20	choice2	n/a	1	n/a
293.104599368	1.5	n/a	n/a	20	outcome	n/a	n/a	0
294.604599368	2.5668413109999966	5.41686291700002	n/a	20	ITI_onset	n/a	n/a	n/a
297.171440679	0.32677902999997605	2.850021606000024	0.32677902999997605	21	stim1	n/a	n/a	n/a
297.49821970899995	0.006565852000028826	2.523242576000048	n/a	21	choice1	1	n/a	n/a
300.02146228500004	0.45058191799995256	5.966703494999965	0.45058191799995256	21	stim2	n/a	0	n/a
300.472044203	0.01612157700001262	5.516121577000012	n/a	21	choice2	n/a	0	n/a
305.98816578	1.5	n/a	n/a	21	outcome	n/a	n/a	1
307.48816578	7.066884619000018	9.983590023000026	n/a	21	ITI_onset	n/a	n/a	n/a
314.555050399	0.3926794300000183	2.9167054040000076	0.3926794300000183	22	stim1	n/a	n/a	n/a
314.947729829	0.00733802199998172	2.524025973999989	n/a	22	choice1	1	n/a	n/a
317.471755803	0.8693861679999972	2.883325328999956	0.8693861679999972	22	stim2	n/a	1	n/a
318.341141971	0.013939160999958403	2.0139391609999584	n/a	22	choice2	n/a	1	n/a
320.35508113199995	1.5	n/a	n/a	22	outcome	n/a	n/a	0
321.85508113199995	2.5668101930000704	7.566864729000023	n/a	22	ITI_onset	n/a	n/a	n/a
324.42189132500005	0.46931289699993795	5.000054535999952	0.46931289699993795	23	stim1	n/a	n/a	n/a
324.891204222	0.014013267000031191	4.530741639000015	n/a	23	choice1	1	n/a	n/a
329.421945861	0.3452357240000274	3.849994820000022	0.3452357240000274	23	stim2	n/a	0	n/a
329.767181585	0.004759095999994315	3.504759095999994	n/a	23	choice2	n/a	0	n/a
333.271940681	1.5	n/a	n/a	23	outcome	n/a	n/a	1
334.771940681	3.5668369799999637	6.016877705999999	n/a	23	ITI_onset	n/a	n/a	n/a
338.338777661	0.417946425000031	2.4500407260000356	0.417946425000031	24	stim1	n/a	n/a	n/a
338.756724086	0.015406508999993093	2.0320943010000048	n/a	24	choice1	1	n/a	n/a
340.788818387	0.30236183899996105	2.8166484289999936	0.30236183899996105	24	stim2	n/a	0	n/a
341.09118022599995	0.014286590000032448	2.5142865900000326	n/a	24	choice2	n/a	0	n/a
343.605466816	1.5	n/a	n/a	24	outcome	n/a	n/a	1
345.105466816	5.566843395999982	11.050417217999987	n/a	24	ITI_onset	n/a	n/a	n/a
350.672310212	0.44940618000004906	5.483573822000006	0.44940618000004906	25	stim1	n/a	n/a	n/a
351.12171639200005	0.017224171999958345	5.034167641999956	n/a	25	choice1	1	n/a	n/a
356.155884034	0.4753908100000117	2.9831587060000166	0.4753908100000117	25	stim2	n/a	0	n/a
356.631274844	0.007767896000004839	2.5077678960000047	n/a	25	choice2	n/a	0	n/a
359.13904274000004	1.5	n/a	n/a	25	outcome	n/a	n/a	0
360.63904274000004	1.0	1.0	n/a	25	ITI_onset	n/a	n/a	n/a
