onset	duration	duration2fb	response_time	trial	event	choice1	state	reward
0.0	0.5489768659999973	5.600081933000001	0.5489768659999973	1	stim1	n/a	n/a	n/a
0.5489768659999967	0.017990905999999085	5.051105067000004	n/a	1	choice1	1	n/a	n/a
5.600081933000002	0.4668508709999951	4.983321174999998	0.4668508709999951	1	stim2	n/a	0	n/a
6.066932803999997	0.016470304000002215	4.516470304000002	n/a	1	choice2	n/a	0	n/a
10.583403107999999	1.5	n/a	n/a	1	outcome	n/a	n/a	1
12.083403107999999	2.083459247999999	8.050728411999996	n/a	1	ITI_onset	n/a	n/a	n/a
14.166862355999996	0.42810214100000304	5.9672691639999975	0.42810214100000304	2	stim1	n/a	n/a	n/a
14.594964497	0.005249926999997115	5.539167022999995	n/a	2	choice1	1	n/a	n/a
20.134131519999997	0.6535551950000008	3.666165928000002	0.6535551950000008	2	stim2	n/a	0	n/a
20.787686715	0.012610733000001347	3.012610733000001	n/a	2	choice2	n/a	0	n/a
23.800297447999995	1.5	n/a	n/a	2	outcome	n/a	n/a	1
25.300297447999995	3.5668651150000006	8.050232484999993	n/a	2	ITI_onset	n/a	n/a	n/a
28.867162563	0.4509429339999915	4.483367369999993	0.4509429339999915	3	stim1	n/a	n/a	n/a
29.31810549699999	0.01572443800000474	4.032424436000001	n/a	3	choice1	1	n/a	n/a
33.35052993299999	0.5264536670000088	4.033405450000005	0.5264536670000088	3	stim2	n/a	0	n/a
33.8769836	0.006951782999996795	3.5069517829999968	n/a	3	choice2	n/a	0	n/a
37.383935382999994	1.5	n/a	n/a	3	outcome	n/a	n/a	1
38.883935382999994	3.066813466000007	6.150199571000004	n/a	3	ITI_onset	n/a	n/a	n/a
41.95074884900001	0.5618785659999994	3.083386104999998	0.5618785659999994	4	stim1	n/a	n/a	n/a
42.512627415	0.0047177159999992	2.5215075389999986	n/a	4	choice1	1	n/a	n/a
45.034134953999995	0.37998181699999256	3.8999257660000004	0.37998181699999256	4	stim2	n/a	0	n/a
45.414116770999996	0.019943949000007705	3.5199439490000075	n/a	4	choice2	n/a	0	n/a
48.934060720000005	1.5	n/a	n/a	4	outcome	n/a	n/a	0
50.434060720000005	8.566915481000004	11.63373247599999	n/a	4	ITI_onset	n/a	n/a	n/a
59.000976201	1.0399905559999898	3.0668169949999866	1.0399905559999898	5	stim1	n/a	n/a	n/a
60.04096675699999	0.010029558000009275	2.0268264389999966	n/a	5	choice1	0	n/a	n/a
62.067793196	0.6792844570000016	3.1999001660000066	0.6792844570000016	5	stim2	n/a	0	n/a
62.74707765299999	0.020615709000005155	2.520615709000005	n/a	5	choice2	n/a	0	n/a
65.267693362	1.5	n/a	n/a	5	outcome	n/a	n/a	1
66.767693362	3.566827259999991	8.683547596999997	n/a	5	ITI_onset	n/a	n/a	n/a
70.33452062199999	1.0933739600000116	5.1167203370000065	1.0933739600000116	6	stim1	n/a	n/a	n/a
71.42789458200001	0.006603712999989512	4.023346376999994	n/a	6	choice1	0	n/a	n/a
75.45124095899999	0.7736990990000049	2.783361981000009	0.7736990990000049	6	stim2	n/a	1	n/a
76.224940058	0.009662882000004175	2.009662882000004	n/a	6	choice2	n/a	1	n/a
78.23460294	1.5	n/a	n/a	6	outcome	n/a	n/a	0
79.73460294	4.066799029999995	10.100336649999997	n/a	6	ITI_onset	n/a	n/a	n/a
83.80140197	0.5105284059999831	6.033537620000002	0.5105284059999831	7	stim1	n/a	n/a	n/a
84.31193037599998	0.006128284000020358	5.5230092140000195	n/a	7	choice1	1	n/a	n/a
89.83493959	2.409746161999981	4.417085007999995	2.409746161999981	7	stim2	n/a	0	n/a
92.24468575199998	0.007338846000013291	2.0073388460000134	n/a	7	choice2	n/a	0	n/a
94.25202459799999	1.5	n/a	n/a	7	outcome	n/a	n/a	1
95.75202459799999	2.5663340120000067	5.166458290000009	n/a	7	ITI_onset	n/a	n/a	n/a
98.31835861	0.5656925829999964	2.600124278000003	0.5656925829999964	8	stim1	n/a	n/a	n/a
98.884051193	0.017636098000002674	2.0344316950000065	n/a	8	choice1	1	n/a	n/a
100.918482888	0.7455647499999905	2.766532699999996	0.7455647499999905	8	stim2	n/a	0	n/a
101.664047638	0.020967950000005658	2.0209679500000055	n/a	8	choice2	n/a	0	n/a
103.685015588	1.5	n/a	n/a	8	outcome	n/a	n/a	1
105.185015588	2.0668384879999793	7.5173528299999886	n/a	8	ITI_onset	n/a	n/a	n/a
107.25185407599997	0.42770049700001256	5.45051434200001	0.42770049700001256	9	stim1	n/a	n/a	n/a
107.67955457299999	0.005639380999986315	5.022813844999997	n/a	9	choice1	1	n/a	n/a
112.70236841799999	0.3337619249999989	5.349588699999993	0.3337619249999989	9	stim2	n/a	0	n/a
113.036130343	0.015826774999994086	5.0158267749999945	n/a	9	choice2	n/a	0	n/a
118.05195711799999	1.5	n/a	n/a	9	outcome	n/a	n/a	0
119.55195711799999	2.566803200000024	6.100226294000022	n/a	9	ITI_onset	n/a	n/a	n/a
122.118760318	0.9943814710000006	3.533423093999998	0.9943814710000006	10	stim1	n/a	n/a	n/a
123.113141789	0.0222726519999851	2.5390416229999975	n/a	10	choice1	1	n/a	n/a
125.652183412	0.870503074999986	7.883383602999995	0.870503074999986	10	stim2	n/a	1	n/a
126.52268648699999	0.01288052800000878	7.012880528000009	n/a	10	choice2	n/a	1	n/a
133.535567015	1.5	n/a	n/a	10	outcome	n/a	n/a	0
135.035567015	5.566876663999981	11.016920709999976	n/a	10	ITI_onset	n/a	n/a	n/a
140.60244367899998	0.4166209520000266	5.450044045999995	0.4166209520000266	11	stim1	n/a	n/a	n/a
141.01906463100002	0.016653801999986173	5.033423093999969	n/a	11	choice1	0	n/a	n/a
146.052487725	0.3346518300000171	3.3500067039999992	0.3346518300000171	11	stim2	n/a	1	n/a
146.387139555	0.015354873999982374	3.0153548739999825	n/a	11	choice2	n/a	1	n/a
149.40249442899997	1.5	n/a	n/a	11	outcome	n/a	n/a	0
150.90249442899997	4.566890138000017	11.350306655000022	n/a	11	ITI_onset	n/a	n/a	n/a
155.469384567	1.2573340190000017	6.783416517000005	1.2573340190000017	12	stim1	n/a	n/a	n/a
156.726718586	0.00924808399999165	5.526082498000004	n/a	12	choice1	0	n/a	n/a
162.252801084	1.1309241740000142	3.650012863999989	1.1309241740000142	12	stim2	n/a	0	n/a
163.38372525800003	0.019088689999975032	2.519088689999975	n/a	12	choice2	n/a	0	n/a
165.902813948	1.5	n/a	n/a	12	outcome	n/a	n/a	0
167.402813948	2.566754439000011	8.200247275000002	n/a	12	ITI_onset	n/a	n/a	n/a
169.969568387	0.6005291309999884	5.6334928359999905	0.6005291309999884	13	stim1	n/a	n/a	n/a
170.57009751799998	0.016115817000012612	5.032963705000002	n/a	13	choice1	1	n/a	n/a
175.603061223	0.435875177000009	4.949905780000001	0.435875177000009	13	stim2	n/a	0	n/a
176.0389364	0.01403060299999197	4.514030602999992	n/a	13	choice2	n/a	0	n/a
180.552967003	1.5	n/a	n/a	13	outcome	n/a	n/a	1
182.052967003	5.066887571	8.017004439000011	n/a	13	ITI_onset	n/a	n/a	n/a
187.119854574	0.9172128320000192	2.950116868000012	0.9172128320000192	14	stim1	n/a	n/a	n/a
188.037067406	0.016139877999987222	2.0329040359999926	n/a	14	choice1	1	n/a	n/a
190.069971442	0.4791061559999944	2.4999271780000125	0.4791061559999944	14	stim2	n/a	0	n/a
190.549077598	0.020821022000018275	2.0208210220000185	n/a	14	choice2	n/a	0	n/a
192.56989862	1.5	n/a	n/a	14	outcome	n/a	n/a	1
194.06989862	2.5667906889999865	9.666951218999952	n/a	14	ITI_onset	n/a	n/a	n/a
196.636689309	0.5753063819999806	7.100160529999965	0.5753063819999806	15	stim1	n/a	n/a	n/a
197.21199569099997	0.008021016999991843	6.524854147999984	n/a	15	choice1	1	n/a	n/a
203.73684983899997	2.0882658260000464	4.600005261000013	2.0882658260000464	15	stim2	n/a	0	n/a
205.825115665	0.01173943499996676	2.5117394349999667	n/a	15	choice2	n/a	0	n/a
208.33685509999998	1.5	n/a	n/a	15	outcome	n/a	n/a	1
209.83685509999998	2.0668137860000133	6.00022937300001	n/a	15	ITI_onset	n/a	n/a	n/a
211.903668886	0.40040183700001214	3.933415586999996	0.40040183700001214	16	stim1	n/a	n/a	n/a
212.304070723	0.016228418999991844	3.533013749999984	n/a	16	choice1	1	n/a	n/a
215.83708447299998	0.3926387460000115	4.39992031300001	0.3926387460000115	16	stim2	n/a	0	n/a
216.229723219	0.007281566999998177	4.007281566999998	n/a	16	choice2	n/a	0	n/a
220.237004786	1.5	n/a	n/a	16	outcome	n/a	n/a	0
221.737004786	2.566811219999974	7.316901204999973	n/a	16	ITI_onset	n/a	n/a	n/a
224.30381600599998	2.7141822790000005	4.750089984999999	2.7141822790000005	17	stim1	n/a	n/a	n/a
227.01799828499998	0.01924331700001494	2.035907705999998	n/a	17	choice1	1	n/a	n/a
229.05390599099997	0.3973757100000512	2.416665223000018	0.3973757100000512	17	stim2	n/a	0	n/a
229.45128170100003	0.019289512999966972	2.019289512999967	n/a	17	choice2	n/a	0	n/a
231.47057121400002	1.5	n/a	n/a	17	outcome	n/a	n/a	0
232.97057121400002	7.066899762000015	10.383642170000007	n/a	17	ITI_onset	n/a	n/a	n/a
240.037470976	0.7916996289999806	3.3167424079999908	0.7916996289999806	18	stim1	n/a	n/a	n/a
240.829170605	0.00830909600004088	2.5250427790000103	n/a	18	choice1	0	n/a	n/a
243.354213384	1.2478912070000079	8.76665364199999	1.2478912070000079	18	stim2	n/a	0	n/a
244.602104591	0.018762434999982362	7.518762434999982	n/a	18	choice2	n/a	0	n/a
252.12086702599998	1.5	n/a	n/a	18	outcome	n/a	n/a	0
253.62086702599998	2.5668484330000356	7.266998183000018	n/a	18	ITI_onset	n/a	n/a	n/a
256.187715459	1.6695423369999625	4.700149749999983	1.6695423369999625	19	stim1	n/a	n/a	n/a
257.857257796	0.013870202000020072	3.03060741300002	n/a	19	choice1	1	n/a	n/a
260.887865209	0.4398685229999828	3.949941068999993	0.4398685229999828	19	stim2	n/a	0	n/a
261.327733732	0.010072546000010334	3.51007254600001	n/a	19	choice2	n/a	0	n/a
264.837806278	1.5	n/a	n/a	19	outcome	n/a	n/a	1
266.337806278	2.616802140999993	7.567095771999972	n/a	19	ITI_onset	n/a	n/a	n/a
268.954608419	0.42247174299997275	4.950293630999979	0.42247174299997275	20	stim1	n/a	n/a	n/a
269.37708016199997	0.010884817000012845	4.527821888000006	n/a	20	choice1	1	n/a	n/a
273.90490205	0.417279559000046	6.433148358000035	0.417279559000046	20	stim2	n/a	0	n/a
274.32218160900004	0.01586879899998894	6.015868798999989	n/a	20	choice2	n/a	0	n/a
280.338050408	1.5	n/a	n/a	20	outcome	n/a	n/a	0
281.838050408	5.0668766640000396	11.333685574999953	n/a	20	ITI_onset	n/a	n/a	n/a
286.904927072	1.2432145529999397	6.266808910999913	1.2432145529999397	21	stim1	n/a	n/a	n/a
288.148141625	0.006789457000035327	5.023594357999973	n/a	21	choice1	0	n/a	n/a
293.17173598299996	0.3540311670000083	4.366652487000043	0.3540311670000083	21	stim2	n/a	1	n/a
293.52576715	0.012621320000034757	4.012621320000035	n/a	21	choice2	n/a	1	n/a
297.53838847	1.5	n/a	n/a	21	outcome	n/a	n/a	0
299.03838847	4.566807050000003	9.466903162000003	n/a	21	ITI_onset	n/a	n/a	n/a
303.60519552	0.3768491829999839	4.900096111999999	0.3768491829999839	22	stim1	n/a	n/a	n/a
303.982044703	0.006523833000042941	4.523246929000015	n/a	22	choice1	1	n/a	n/a
308.505291632	0.5754879560000263	5.58333349400002	0.5754879560000263	22	stim2	n/a	0	n/a
309.08077958800004	0.007845537999994122	5.007845537999994	n/a	22	choice2	n/a	0	n/a
314.088625126	1.5	n/a	n/a	22	outcome	n/a	n/a	0
315.588625126	6.066904572999978	9.25025936799997	n/a	22	ITI_onset	n/a	n/a	n/a
321.655529699	1.147585354000039	3.183354794999992	1.147585354000039	23	stim1	n/a	n/a	n/a
322.80311505300006	0.01907489699992584	2.035769440999953	n/a	23	choice1	0	n/a	n/a
324.838884494	0.5752306729999836	3.083414657000045	0.5752306729999836	23	stim2	n/a	1	n/a
325.414115167	0.008183984000061173	2.5081839840000613	n/a	23	choice2	n/a	1	n/a
327.92229915100006	1.5	n/a	n/a	23	outcome	n/a	n/a	1
329.42229915100006	7.566867680999974	11.35017448399996	n/a	23	ITI_onset	n/a	n/a	n/a
336.989166832	1.7476265450000064	3.783306802999985	1.7476265450000064	24	stim1	n/a	n/a	n/a
338.736793377	0.019020680999965407	2.0356802579999784	n/a	24	choice1	1	n/a	n/a
340.772473635	0.34960698500002035	4.366732688000019	0.34960698500002035	24	stim2	n/a	0	n/a
341.12208062	0.017125702999997883	4.017125702999998	n/a	24	choice2	n/a	0	n/a
345.139206323	1.5	n/a	n/a	24	outcome	n/a	n/a	0
346.639206323	3.5667977459999967	9.183734624999984	n/a	24	ITI_onset	n/a	n/a	n/a
350.206004069	0.5860869390000008	5.6169368789999865	0.5860869390000008	25	stim1	n/a	n/a	n/a
350.792091008	0.01391703900002176	5.030849939999985	n/a	25	choice1	1	n/a	n/a
355.822940948	0.5981911250000121	2.6165028329999767	0.5981911250000121	25	stim2	n/a	0	n/a
356.421132073	0.01831170799996471	2.0183117079999646	n/a	25	choice2	n/a	0	n/a
358.43944378099997	1.5	n/a	n/a	25	outcome	n/a	n/a	0
359.93944378099997	1.0	1.0	n/a	25	ITI_onset	n/a	n/a	n/a
