onset	duration	duration2fb	response_time	trial	event	choice1	state	reward
0.0	1.151738312999998	3.1833148389999986	1.151738312999998	1	stim1	n/a	n/a	n/a
1.1517383129999956	0.01535935099999915	2.0315765260000007	n/a	1	choice1	0	n/a	n/a
3.1833148389999977	0.44992010500000107	5.466747766000004	0.44992010500000107	1	stim2	n/a	1	n/a
3.633234943999998	0.01682766100000299	5.016827661000003	n/a	1	choice2	n/a	1	n/a
8.650062605000002	1.5	n/a	n/a	1	outcome	n/a	n/a	1
10.150062605000002	5.066821260999998	7.366811411999995	n/a	1	ITI_onset	n/a	n/a	n/a
15.216883866	0.27925063200000294	2.299990150999998	0.27925063200000294	2	stim1	n/a	n/a	n/a
15.496134498	0.004029592999999295	2.0207395189999953	n/a	2	choice1	1	n/a	n/a
17.516874016999996	0.6483366909999968	5.166674687000006	0.6483366909999968	2	stim2	n/a	0	n/a
18.165210707999993	0.018337996000009297	4.518337996000009	n/a	2	choice2	n/a	0	n/a
22.683548704000007	1.5	n/a	n/a	2	outcome	n/a	n/a	0
24.183548704000007	6.566938353999991	13.083652290999998	n/a	2	ITI_onset	n/a	n/a	n/a
30.750487057999994	0.4867686880000037	6.516713937000008	0.4867686880000037	3	stim1	n/a	n/a	n/a
31.237255746	0.01317757800000254	6.029945249000004	n/a	3	choice1	1	n/a	n/a
37.267200994999996	0.5069763170000006	3.5167014249999995	0.5069763170000006	3	stim2	n/a	0	n/a
37.774177312000006	0.009725107999998726	3.0097251079999987	n/a	3	choice2	n/a	0	n/a
40.783902420000004	1.5	n/a	n/a	3	outcome	n/a	n/a	0
42.283902420000004	5.066790784999998	10.016993996999991	n/a	3	ITI_onset	n/a	n/a	n/a
47.350693205	0.41365890900000524	4.950203211999993	0.41365890900000524	4	stim1	n/a	n/a	n/a
47.764352114000005	0.01969723299999896	4.536544302999988	n/a	4	choice1	0	n/a	n/a
52.30089641699999	0.5492326580000081	7.066542484000005	0.5492326580000081	4	stim2	n/a	1	n/a
52.850129075	0.017309825999996975	6.517309825999997	n/a	4	choice2	n/a	1	n/a
59.367438901	1.5	n/a	n/a	4	outcome	n/a	n/a	1
60.867438901	2.566849813000008	4.98389959700001	n/a	4	ITI_onset	n/a	n/a	n/a
63.434288714000004	0.37984222299999965	2.4170497840000027	0.37984222299999965	5	stim1	n/a	n/a	n/a
63.814130937	0.020206024999992224	2.037207561000003	n/a	5	choice1	1	n/a	n/a
65.851338498	1.6089027649999916	5.116517317999984	1.6089027649999916	5	stim2	n/a	1	n/a
67.460241263	0.007614552999992156	3.5076145529999923	n/a	5	choice2	n/a	1	n/a
70.96785581599998	1.5	n/a	n/a	5	outcome	n/a	n/a	1
72.46785581599998	4.56673913500001	9.866913427000007	n/a	5	ITI_onset	n/a	n/a	n/a
77.034594951	0.26711951099999715	5.300174291999996	0.26711951099999715	6	stim1	n/a	n/a	n/a
77.30171446199999	0.016153976999994483	5.033054780999999	n/a	6	choice1	0	n/a	n/a
82.334769243	0.3103129130000016	7.316546092999997	0.3103129130000016	6	stim2	n/a	1	n/a
82.645082156	0.006233179999995627	7.006233179999995	n/a	6	choice2	n/a	1	n/a
89.651315336	1.5	n/a	n/a	6	outcome	n/a	n/a	1
91.151315336	8.566895206000016	14.450320945999993	n/a	6	ITI_onset	n/a	n/a	n/a
99.71821054200001	0.34783325599998355	5.883425739999977	0.34783325599998355	7	stim1	n/a	n/a	n/a
100.066043798	0.018855129000003218	5.535592483999993	n/a	7	choice1	0	n/a	n/a
105.60163628199999	0.35648560300000826	2.3667297690000124	0.35648560300000826	7	stim2	n/a	0	n/a
105.958121885	0.010244166000004043	2.010244166000004	n/a	7	choice2	n/a	0	n/a
107.96836605099999	1.5	n/a	n/a	7	outcome	n/a	n/a	1
109.46836605099999	6.066770895000008	13.400205601999987	n/a	7	ITI_onset	n/a	n/a	n/a
115.53513694600001	0.2965165089999791	7.333434706999978	0.2965165089999791	8	stim1	n/a	n/a	n/a
115.831653455	0.020185173000005305	7.0369181979999995	n/a	8	choice1	1	n/a	n/a
122.86857165299999	0.29304671600001164	3.3000148530000004	0.29304671600001164	8	stim2	n/a	0	n/a
123.16161836899998	0.006968136999988928	3.0069681369999888	n/a	8	choice2	n/a	0	n/a
126.16858650599998	1.5	n/a	n/a	8	outcome	n/a	n/a	0
127.66858650599998	7.566891356000007	11.850282257000014	n/a	8	ITI_onset	n/a	n/a	n/a
135.235477862	0.24962458200001855	4.283390901000006	0.24962458200001855	9	stim1	n/a	n/a	n/a
135.48510244400003	0.017035218999983046	4.033766318999987	n/a	9	choice1	1	n/a	n/a
139.518868763	0.8922426580000028	3.899992910000001	0.8922426580000028	9	stim2	n/a	0	n/a
140.41111142100002	0.007750251999998	3.007750251999998	n/a	9	choice2	n/a	0	n/a
143.418861673	1.5	n/a	n/a	9	outcome	n/a	n/a	0
144.918861673	4.066810674999986	6.916907348999986	n/a	9	ITI_onset	n/a	n/a	n/a
148.985672348	0.8232923960000044	2.8500966740000004	0.8232923960000044	10	stim1	n/a	n/a	n/a
149.808964744	0.010050401000014971	2.026804277999996	n/a	10	choice1	0	n/a	n/a
151.835769022	1.1032988370000094	5.616665367000008	1.1032988370000094	10	stim2	n/a	1	n/a
152.939067859	0.01336652999999933	4.513366529999999	n/a	10	choice2	n/a	1	n/a
157.45243438900002	1.5	n/a	n/a	10	outcome	n/a	n/a	1
158.95243438900002	4.566802013000007	7.266838809000008	n/a	10	ITI_onset	n/a	n/a	n/a
163.51923640200002	0.6694181839999801	2.7000367960000005	0.6694181839999801	11	stim1	n/a	n/a	n/a
164.18865458599998	0.014003963000024669	2.03061861200002	n/a	11	choice1	0	n/a	n/a
166.21927319800002	0.6347590729999938	3.1500593970000046	0.6347590729999938	11	stim2	n/a	1	n/a
166.85403227100002	0.015300324000010733	2.5153003240000107	n/a	11	choice2	n/a	1	n/a
169.36933259500003	1.5	n/a	n/a	11	outcome	n/a	n/a	1
170.86933259500003	5.066813721999992	11.550302853000002	n/a	11	ITI_onset	n/a	n/a	n/a
175.936146317	0.9509080129999784	6.48348913100001	0.9509080129999784	12	stim1	n/a	n/a	n/a
176.88705432999998	0.015796604000002844	5.532581118000031	n/a	12	choice1	1	n/a	n/a
182.419635448	1.0774951400000137	4.583262515999988	1.0774951400000137	12	stim2	n/a	0	n/a
183.49713058800003	0.005767375999974319	3.5057673759999743	n/a	12	choice2	n/a	0	n/a
187.002897964	1.5	n/a	n/a	12	outcome	n/a	n/a	0
188.502897964	5.566848207999981	7.866997797999996	n/a	12	ITI_onset	n/a	n/a	n/a
194.06974617199998	0.2783222320000059	2.3001495900000153	0.2783222320000059	13	stim1	n/a	n/a	n/a
194.348068404	0.005035948000004282	2.0218273580000097	n/a	13	choice1	1	n/a	n/a
196.369895762	0.489593028000003	4.499879539000016	0.489593028000003	13	stim2	n/a	1	n/a
196.85948879	0.010286511000012979	4.010286511000013	n/a	13	choice2	n/a	1	n/a
200.86977530100003	1.5	n/a	n/a	13	outcome	n/a	n/a	0
202.36977530100003	6.066862964999978	8.466976978999998	n/a	13	ITI_onset	n/a	n/a	n/a
208.436638266	0.37137754600000333	2.4001140140000206	0.37137754600000333	14	stim1	n/a	n/a	n/a
208.808015812	0.011967513000010513	2.0287364680000173	n/a	14	choice1	0	n/a	n/a
210.83675228	0.5337975969999971	4.549947404000006	0.5337975969999971	14	stim2	n/a	1	n/a
211.37054987700003	0.016149807000008877	4.016149807000009	n/a	14	choice2	n/a	1	n/a
215.38669968400004	1.5	n/a	n/a	14	outcome	n/a	n/a	0
216.88669968400004	3.566812438999972	7.016987259999994	n/a	14	ITI_onset	n/a	n/a	n/a
220.453512123	0.4184847310000041	3.4501748210000223	0.4184847310000041	15	stim1	n/a	n/a	n/a
220.871996854	0.014872694000019691	3.0316900900000183	n/a	15	choice1	0	n/a	n/a
223.90368694400001	0.42448500899999636	2.9332749789999797	0.42448500899999636	15	stim2	n/a	1	n/a
224.328171953	0.008789969999983441	2.5087899699999836	n/a	15	choice2	n/a	1	n/a
226.836961923	1.5	n/a	n/a	15	outcome	n/a	n/a	0
228.336961923	2.5667153969999927	6.6334229340000315	n/a	15	ITI_onset	n/a	n/a	n/a
230.90367731999999	1.5443968910000403	4.066707537000038	1.5443968910000403	16	stim1	n/a	n/a	n/a
232.44807421100003	0.0056291099999798465	2.522310645999998	n/a	16	choice1	1	n/a	n/a
234.97038485700006	0.4974302169999573	2.516676723999961	0.4974302169999573	16	stim2	n/a	0	n/a
235.467815074	0.019246507000003476	2.0192465070000036	n/a	16	choice2	n/a	0	n/a
237.48706158099998	1.5	n/a	n/a	16	outcome	n/a	n/a	1
238.98706158099998	2.5667999269999853	9.50029000399998	n/a	16	ITI_onset	n/a	n/a	n/a
241.55386150799995	0.4058024720000685	6.933490076999995	0.4058024720000685	17	stim1	n/a	n/a	n/a
241.95966398000007	0.010895071999984794	6.527687604999927	n/a	17	choice1	0	n/a	n/a
248.487351585	0.49458759200002533	7.999924773000006	0.49458759200002533	17	stim2	n/a	1	n/a
248.98193917700002	0.005337180999980774	7.505337180999981	n/a	17	choice2	n/a	1	n/a
256.487276358	1.5	n/a	n/a	17	outcome	n/a	n/a	0
257.987276358	6.08364074100001	12.450357676999992	n/a	17	ITI_onset	n/a	n/a	n/a
264.070917099	0.3401994560000603	6.366716935999983	0.3401994560000603	18	stim1	n/a	n/a	n/a
264.41111655500004	0.009763924999977462	6.026517479999923	n/a	18	choice1	0	n/a	n/a
270.437634035	0.4794107770000119	4.483338354000007	0.4794107770000119	18	stim2	n/a	1	n/a
270.917044812	0.003927576999994926	4.003927576999995	n/a	18	choice2	n/a	1	n/a
274.920972389	1.5	n/a	n/a	18	outcome	n/a	n/a	0
276.420972389	2.566815968000039	6.333577945000027	n/a	18	ITI_onset	n/a	n/a	n/a
278.987788357	0.7327499229999958	3.7667619769999874	0.7327499229999958	19	stim1	n/a	n/a	n/a
279.72053828	0.017276141999987886	3.0340120539999917	n/a	19	choice1	1	n/a	n/a
282.754550334	0.7464430290000164	2.7666663779999943	0.7464430290000164	19	stim2	n/a	0	n/a
283.500993363	0.020223348999978043	2.020223348999978	n/a	19	choice2	n/a	0	n/a
285.521216712	1.5	n/a	n/a	19	outcome	n/a	n/a	1
287.021216712	2.06673368200002	5.533481448000006	n/a	19	ITI_onset	n/a	n/a	n/a
289.087950394	0.9326502179999953	3.466747765999986	0.9326502179999953	20	stim1	n/a	n/a	n/a
290.020600612	0.017419220000039787	2.5340975479999908	n/a	20	choice1	0	n/a	n/a
292.55469816	0.550333970000036	2.566673049999983	0.550333970000036	20	stim2	n/a	1	n/a
293.10503213000004	0.01633907999994699	2.016339079999947	n/a	20	choice2	n/a	1	n/a
295.12137121	1.5	n/a	n/a	20	outcome	n/a	n/a	0
296.62137121	8.566822705000057	11.516997045000025	n/a	20	ITI_onset	n/a	n/a	n/a
305.18819391500006	0.42878503699996506	2.9501743399999687	0.42878503699996506	21	stim1	n/a	n/a	n/a
305.616978952	0.004606073000002652	2.5213893030000034	n/a	21	choice1	1	n/a	n/a
308.138368255	0.483526343000005	4.499878896999988	0.483526343000005	21	stim2	n/a	0	n/a
308.62189459800004	0.016352553999982776	4.016352553999983	n/a	21	choice2	n/a	0	n/a
312.638247152	1.5	n/a	n/a	21	outcome	n/a	n/a	1
314.138247152	3.116865067000035	5.616886079000018	n/a	21	ITI_onset	n/a	n/a	n/a
317.255112219	0.46785196499997983	2.500021011999983	0.46785196499997983	22	stim1	n/a	n/a	n/a
317.72296418400003	0.015436663999978919	2.032169047000003	n/a	22	choice1	0	n/a	n/a
319.755133231	0.6189008749999921	5.633328617999971	0.6189008749999921	22	stim2	n/a	0	n/a
320.374034106	0.014427742999978364	5.014427742999978	n/a	22	choice2	n/a	0	n/a
325.388461849	1.5	n/a	n/a	22	outcome	n/a	n/a	1
326.888461849	5.083507127000019	13.133701710000052	n/a	22	ITI_onset	n/a	n/a	n/a
331.971968976	0.5278897109999671	8.050194583000033	0.5278897109999671	23	stim1	n/a	n/a	n/a
332.49985868699997	0.005475124999997206	7.522304872000066	n/a	23	choice1	1	n/a	n/a
340.02216355900003	0.519668200999964	3.033266028999991	0.519668200999964	23	stim2	n/a	1	n/a
340.54183176	0.01359782800002722	2.513597828000027	n/a	23	choice2	n/a	1	n/a
343.05542958800004	1.5	n/a	n/a	23	outcome	n/a	n/a	0
344.55542958800004	3.5668119580000055	5.933512532999972	n/a	23	ITI_onset	n/a	n/a	n/a
348.12224154600005	0.3348725400000112	2.366700574999966	0.3348725400000112	24	stim1	n/a	n/a	n/a
348.45711408600005	0.015124523999926169	2.031828034999955	n/a	24	choice1	1	n/a	n/a
350.488942121	0.9635562679999857	2.983328249000013	0.9635562679999857	24	stim2	n/a	0	n/a
351.45249838899997	0.019771981000027153	2.019771981000027	n/a	24	choice2	n/a	0	n/a
353.47227037000005	1.5	n/a	n/a	24	outcome	n/a	n/a	1
354.97227037000005	3.0668174109999673	11.483716417999997	n/a	24	ITI_onset	n/a	n/a	n/a
358.039087781	0.3958460650000488	8.41689900700003	0.3958460650000488	25	stim1	n/a	n/a	n/a
358.43493384600004	0.004117170999990776	8.02105294199998	n/a	25	choice1	0	n/a	n/a
366.455986788	0.5080417010000092	2.516598448000033	0.5080417010000092	25	stim2	n/a	1	n/a
366.96402848900004	0.008556747000024189	2.008556747000024	n/a	25	choice2	n/a	1	n/a
368.97258523600004	1.5	n/a	n/a	25	outcome	n/a	n/a	0
370.47258523600004	1.0	1.0	n/a	25	ITI_onset	n/a	n/a	n/a
