onset	duration	duration2fb	response_time	trial	event	choice1	state	reward
0.0	0.5651754089999995	2.6000549219999995	0.5651754089999995	1	stim1	n/a	n/a	n/a
0.5651754090000018	0.01836109899999792	2.034879513	n/a	1	choice1	1	n/a	n/a
2.6000549220000018	0.7360476810000001	4.249956692	0.7360476810000001	1	stim2	n/a	0	n/a
3.3361026030000005	0.013909010999999737	3.5139090109999995	n/a	1	choice2	n/a	0	n/a
6.850011614	1.5	n/a	n/a	1	outcome	n/a	n/a	1
8.350011614	3.5668801490000006	6.800225074000002	n/a	1	ITI_onset	n/a	n/a	n/a
11.916891763000002	0.6995359279999975	3.2333449250000013	0.6995359279999975	2	stim1	n/a	n/a	n/a
12.616427690999998	0.017119596000004095	2.533808997000004	n/a	2	choice1	1	n/a	n/a
15.150236688	0.649639355000003	7.166663352	0.649639355000003	2	stim2	n/a	1	n/a
15.799876043000005	0.0170239969999966	6.517023996999996	n/a	2	choice2	n/a	1	n/a
22.31690004	1.5	n/a	n/a	2	outcome	n/a	n/a	0
23.81690004	3.566872771000002	10.550311048999996	n/a	2	ITI_onset	n/a	n/a	n/a
27.383772811000007	0.45476884899999276	6.983438277999994	0.45476884899999276	3	stim1	n/a	n/a	n/a
27.838541659999997	0.01189726199999859	6.528669429000002	n/a	3	choice1	1	n/a	n/a
34.367211089	0.5978513329999987	5.116642308000002	0.5978513329999987	3	stim2	n/a	0	n/a
34.965062421999995	0.018790975000003526	4.5187909750000035	n/a	3	choice2	n/a	0	n/a
39.483853397	1.5	n/a	n/a	3	outcome	n/a	n/a	1
40.983853397	2.5668515980000013	5.233560183000002	n/a	3	ITI_onset	n/a	n/a	n/a
43.550704995000004	0.6309269759999951	2.6667085850000003	0.6309269759999951	4	stim1	n/a	n/a	n/a
44.181631970999995	0.019085791999998037	2.035781609000005	n/a	4	choice1	1	n/a	n/a
46.21741358	0.47013750799999254	6.483359039999988	0.47013750799999254	4	stim2	n/a	0	n/a
46.68755108799999	0.013221532000003209	6.013221531999996	n/a	4	choice2	n/a	0	n/a
52.700772619999995	1.5	n/a	n/a	4	outcome	n/a	n/a	1
54.200772619999995	4.066828500000003	8.566914155000006	n/a	4	ITI_onset	n/a	n/a	n/a
58.267601119999995	0.46856782500000554	4.500085655000003	0.46856782500000554	5	stim1	n/a	n/a	n/a
58.736168945	0.014769721999997274	4.031517829999997	n/a	5	choice1	1	n/a	n/a
62.767686775	0.8400173490000016	3.850004875999992	0.8400173490000016	5	stim2	n/a	0	n/a
63.607704123999994	0.009987526999990223	3.00998752699999	n/a	5	choice2	n/a	0	n/a
66.61769165099999	1.5	n/a	n/a	5	outcome	n/a	n/a	1
68.11769165099999	3.5668147060000193	6.133469973000014	n/a	5	ITI_onset	n/a	n/a	n/a
71.684506357	0.5462028599999903	2.5666552669999945	0.5462028599999903	6	stim1	n/a	n/a	n/a
72.230709217	0.003772951000006287	2.0204524070000045	n/a	6	choice1	1	n/a	n/a
74.251161624	0.5634238299999997	3.5833668040000046	0.5634238299999997	6	stim2	n/a	0	n/a
74.814585454	0.01994297400000505	3.019942974000005	n/a	6	choice2	n/a	0	n/a
77.83452842800001	1.5	n/a	n/a	6	outcome	n/a	n/a	1
79.33452842800001	4.566822084999992	13.150289940999995	n/a	6	ITI_onset	n/a	n/a	n/a
83.901350513	0.548742007000008	8.583467856000002	0.548742007000008	7	stim1	n/a	n/a	n/a
84.45009252000001	0.017929621000002952	8.034725848999996	n/a	7	choice1	1	n/a	n/a
92.484818369	0.6195523010000034	2.6333031559999944	0.6195523010000034	7	stim2	n/a	0	n/a
93.10437067000001	0.013750854999991133	2.013750854999991	n/a	7	choice2	n/a	0	n/a
95.11812152499999	1.5	n/a	n/a	7	outcome	n/a	n/a	0
96.61812152499999	6.0669135130000065	11.100465869000008	n/a	7	ITI_onset	n/a	n/a	n/a
102.68503503800001	0.5016110679999838	5.033552356	0.5016110679999838	8	stim1	n/a	n/a	n/a
103.18664610599998	0.015009361000018543	4.5319412880000165	n/a	8	choice1	1	n/a	n/a
107.718587394	0.20902396600000794	5.716476517000003	0.20902396600000794	8	stim2	n/a	0	n/a
107.92761136000001	0.007452550999994856	5.507452550999995	n/a	8	choice2	n/a	0	n/a
113.435063911	1.5	n/a	n/a	8	outcome	n/a	n/a	1
114.935063911	7.066909341999999	14.617032402000012	n/a	8	ITI_onset	n/a	n/a	n/a
122.001973253	0.5166836269999913	7.550123060000012	0.5166836269999913	9	stim1	n/a	n/a	n/a
122.51865688	0.016608558000036282	7.033439433000021	n/a	9	choice1	1	n/a	n/a
129.552096313	0.7044634460000089	2.716670922999998	0.7044634460000089	9	stim2	n/a	0	n/a
130.25655975900003	0.012207476999989012	2.012207476999989	n/a	9	choice2	n/a	0	n/a
132.26876723599997	1.5	n/a	n/a	9	outcome	n/a	n/a	1
133.76876723599997	6.066831066999992	10.71705107300001	n/a	9	ITI_onset	n/a	n/a	n/a
139.83559830299998	0.6169214039999933	4.650220006000017	0.6169214039999933	10	stim1	n/a	n/a	n/a
140.45251970699996	0.016404529000021286	4.033298602000024	n/a	10	choice1	1	n/a	n/a
144.48581830900002	0.7523424949999898	3.766546001999988	0.7523424949999898	10	stim2	n/a	0	n/a
145.23816080400002	0.014203506999998353	3.014203506999998	n/a	10	choice2	n/a	0	n/a
148.252364311	1.5	n/a	n/a	10	outcome	n/a	n/a	1
149.752364311	2.5668021949999966	10.21688970900001	n/a	10	ITI_onset	n/a	n/a	n/a
152.319166506	0.6263889119999949	7.650087514000013	0.6263889119999949	11	stim1	n/a	n/a	n/a
152.94555541799997	0.00691328199999407	7.023698602000018	n/a	11	choice1	1	n/a	n/a
159.96925402	0.6938192379999965	2.69996419899998	0.6938192379999965	11	stim2	n/a	1	n/a
160.663073258	0.006144960999983596	2.0061449609999835	n/a	11	choice2	n/a	1	n/a
162.66921821900002	1.5	n/a	n/a	11	outcome	n/a	n/a	0
164.16921821900002	3.5668458240000183	9.050245285000011	n/a	11	ITI_onset	n/a	n/a	n/a
167.736064043	0.45698976099997524	5.483399460999993	0.45698976099997524	12	stim1	n/a	n/a	n/a
168.193053804	0.009667367000016384	5.026409700000018	n/a	12	choice1	1	n/a	n/a
173.21946350399998	0.43067983100001583	5.450028680000018	0.43067983100001583	12	stim2	n/a	0	n/a
173.650143335	0.01934884900000179	5.019348849000002	n/a	12	choice2	n/a	0	n/a
178.66949218400003	1.5	n/a	n/a	12	outcome	n/a	n/a	0
180.16949218400003	5.5669013219999615	11.05026036299998	n/a	12	ITI_onset	n/a	n/a	n/a
185.73639350599996	0.4473086000000185	5.483359041000018	0.4473086000000185	13	stim1	n/a	n/a	n/a
186.183702106	0.019259665999998107	5.0360504409999995	n/a	13	choice1	1	n/a	n/a
191.21975254699998	0.4338105370000121	2.9500325289999894	0.4338105370000121	13	stim2	n/a	0	n/a
191.65356308399998	0.016221991999977037	2.516221991999977	n/a	13	choice2	n/a	0	n/a
194.16978507599998	1.5	n/a	n/a	13	outcome	n/a	n/a	0
195.66978507599998	2.566786796	7.550174067000015	n/a	13	ITI_onset	n/a	n/a	n/a
198.236571872	0.46006079900002805	4.983387271000014	0.46006079900002805	14	stim1	n/a	n/a	n/a
198.69663267100003	0.006572910999966553	4.523326471999986	n/a	14	choice1	0	n/a	n/a
203.21995914299998	0.5791764889999759	3.599987232000014	0.5791764889999759	14	stim2	n/a	1	n/a
203.799135632	0.0208107430000382	3.0208107430000384	n/a	14	choice2	n/a	1	n/a
206.81994637500003	1.5	n/a	n/a	14	outcome	n/a	n/a	1
208.31994637500003	3.0668012330000054	9.183534006000002	n/a	14	ITI_onset	n/a	n/a	n/a
211.386747608	0.5916348319999525	6.116732772999996	0.5916348319999525	15	stim1	n/a	n/a	n/a
211.97838243999996	0.008366515000030631	5.525097941000044	n/a	15	choice1	1	n/a	n/a
217.50348038100003	0.5221045379999559	6.03339869099998	0.5221045379999559	15	stim2	n/a	0	n/a
218.02558491899998	0.011294153000024381	5.511294153000025	n/a	15	choice2	n/a	0	n/a
223.53687907199998	1.5	n/a	n/a	15	outcome	n/a	n/a	0
225.03687907199998	3.0668361999999907	6.100144105000014	n/a	15	ITI_onset	n/a	n/a	n/a
228.103715272	0.5064227760000213	3.033307905000023	0.5064227760000213	16	stim1	n/a	n/a	n/a
228.610138048	0.010210484999988693	2.526885129000002	n/a	16	choice1	1	n/a	n/a
231.137023177	0.6615074219999951	3.1666749000000127	0.6615074219999951	16	stim2	n/a	1	n/a
231.798530599	0.005167478000017581	2.5051674780000175	n/a	16	choice2	n/a	1	n/a
234.30369807700004	1.5	n/a	n/a	16	outcome	n/a	n/a	0
235.80369807700004	2.5668131019999856	8.616924612999952	n/a	16	ITI_onset	n/a	n/a	n/a
238.370511179	0.5133694219999888	6.050111510999966	0.5133694219999888	17	stim1	n/a	n/a	n/a
238.883880601	0.02011909399999422	5.536742088999977	n/a	17	choice1	1	n/a	n/a
244.42062269000002	0.4834883229999978	5.000021494000015	0.4834883229999978	17	stim2	n/a	0	n/a
244.90411101299998	0.01653317100001732	4.516533171000018	n/a	17	choice2	n/a	0	n/a
249.42064418400003	1.5	n/a	n/a	17	outcome	n/a	n/a	0
250.92064418400003	5.066817593000014	12.050332543000055	n/a	17	ITI_onset	n/a	n/a	n/a
255.98746177700002	0.4481086800000048	6.983514950000041	0.4481086800000048	18	stim1	n/a	n/a	n/a
256.43557045700004	0.018591115000017453	6.535406270000036	n/a	18	choice1	1	n/a	n/a
262.97097672700005	0.4870928539999877	2.499923969999945	0.4870928539999877	18	stim2	n/a	0	n/a
263.4580695810001	0.012831115999957546	2.0128311159999575	n/a	18	choice2	n/a	0	n/a
265.470900697	1.5	n/a	n/a	18	outcome	n/a	n/a	0
266.970900697	6.066958425000019	14.067001412999991	n/a	18	ITI_onset	n/a	n/a	n/a
273.03785912200004	0.47760449499997776	8.000042987999972	0.47760449499997776	19	stim1	n/a	n/a	n/a
273.515463617	0.005566235000034794	7.522438492999994	n/a	19	choice1	0	n/a	n/a
281.03790211	0.4576685779999825	3.966636276000005	0.4576685779999825	19	stim2	n/a	1	n/a
281.495570688	0.008967698000022211	3.5089676980000224	n/a	19	choice2	n/a	1	n/a
285.004538386	1.5	n/a	n/a	19	outcome	n/a	n/a	1
286.504538386	3.1001258180000004	7.766967215000012	n/a	19	ITI_onset	n/a	n/a	n/a
289.604664204	1.1344535529999993	4.666841397000011	1.1344535529999993	20	stim1	n/a	n/a	n/a
290.739117757	0.015565309999976308	3.5323878440000116	n/a	20	choice1	1	n/a	n/a
294.271505601	0.821582464999985	4.8332400870000125	0.821582464999985	20	stim2	n/a	0	n/a
295.093088066	0.011657622000027913	4.011657622000028	n/a	20	choice2	n/a	0	n/a
299.10474568800004	1.5	n/a	n/a	20	outcome	n/a	n/a	1
300.60474568800004	2.5668070069999667	7.500204672000022	n/a	20	ITI_onset	n/a	n/a	n/a
303.171552695	0.9094822000000277	4.933397665000055	0.9094822000000277	21	stim1	n/a	n/a	n/a
304.081034895	0.007160940999980084	4.0239154650000275	n/a	21	choice1	1	n/a	n/a
308.10495036000003	0.46463735899992753	5.483388232999947	0.46463735899992753	21	stim2	n/a	0	n/a
308.56958771899997	0.018750874000019395	5.01875087400002	n/a	21	choice2	n/a	0	n/a
313.588338593	1.5	n/a	n/a	21	outcome	n/a	n/a	0
315.088338593	3.566822084000043	6.100202490000054	n/a	21	ITI_onset	n/a	n/a	n/a
318.655160677	0.5044235379999736	2.533380406000011	0.5044235379999736	22	stim1	n/a	n/a	n/a
319.159584215	0.012219026000006124	2.0289568680000376	n/a	22	choice1	1	n/a	n/a
321.1885410830001	0.7729225829999777	2.78333998499997	0.7729225829999777	22	stim2	n/a	1	n/a
321.96146366600004	0.010417401999991853	2.010417401999992	n/a	22	choice2	n/a	1	n/a
323.971881068	1.5	n/a	n/a	22	outcome	n/a	n/a	1
325.471881068	4.566852240000037	7.666909405999991	n/a	22	ITI_onset	n/a	n/a	n/a
330.0387333080001	0.5637828059999738	3.100057165999955	0.5637828059999738	23	stim1	n/a	n/a	n/a
330.602516114	0.019483585999987552	2.536274359999981	n/a	23	choice1	1	n/a	n/a
333.138790474	0.6288010220000287	5.633222636000021	0.6288010220000287	23	stim2	n/a	0	n/a
333.767591496	0.004421613999991678	5.004421613999992	n/a	23	choice2	n/a	0	n/a
338.77201311000005	1.5	n/a	n/a	23	outcome	n/a	n/a	0
340.27201311000005	4.566858975999988	11.066962595999998	n/a	23	ITI_onset	n/a	n/a	n/a
344.83887208600004	0.4737465309999534	6.500103620000009	0.4737465309999534	24	stim1	n/a	n/a	n/a
345.312618617	0.009644269000040367	6.026357089000055	n/a	24	choice1	1	n/a	n/a
351.33897570600004	0.4144594420000212	4.43333510799997	0.4144594420000212	24	stim2	n/a	0	n/a
351.75343514800005	0.018875665999948978	4.018875665999949	n/a	24	choice2	n/a	0	n/a
355.772310814	1.5	n/a	n/a	24	outcome	n/a	n/a	0
357.272310814	4.066867318000004	9.183629284000023	n/a	24	ITI_onset	n/a	n/a	n/a
361.33917813200003	1.0868937000000152	5.11676196600002	1.0868937000000152	25	stim1	n/a	n/a	n/a
362.426071832	0.013117912999994588	4.029868266000005	n/a	25	choice1	1	n/a	n/a
366.45594009800004	0.4606770590000087	2.4666356340000055	0.4606770590000087	25	stim2	n/a	0	n/a
366.916617157	0.005958574999996927	2.005958574999997	n/a	25	choice2	n/a	0	n/a
368.92257573200004	1.5	n/a	n/a	25	outcome	n/a	n/a	0
370.42257573200004	1.0	1.0	n/a	25	ITI_onset	n/a	n/a	n/a
