onset	duration	duration2fb	response_time	trial	event	choice1	state	reward
0.0	0.5335733	3.566724000000002	0.5335733	1	stim1	n/a	n/a	n/a
0.5335733000000005	0.016774499999999533	3.033150700000002	n/a	1	choice1	1	n/a	n/a
3.5667240000000042	0.3989460009999966	3.416677099999997	0.3989460009999966	1	stim2	n/a	1	n/a
3.9656700009999994	0.01773109900000054	3.0177310990000006	n/a	1	choice2	n/a	1	n/a
6.983401100000002	1.5	n/a	n/a	1	outcome	n/a	n/a	0
8.483401100000002	2.5668103009999976	5.700148699999998	n/a	1	ITI_onset	n/a	n/a	n/a
11.050211400999995	1.1124842990000035	3.1333383990000003	1.1124842990000035	2	stim1	n/a	n/a	n/a
12.162695700000004	0.004128199999999197	2.0208540999999967	n/a	2	choice1	1	n/a	n/a
14.183549799999998	0.32006980000000473	3.3333787000000012	0.32006980000000473	2	stim2	n/a	1	n/a
14.503619600000004	0.013308899999996356	3.013308899999996	n/a	2	choice2	n/a	1	n/a
17.516928500000002	1.5	n/a	n/a	2	outcome	n/a	n/a	0
19.016928500000002	2.566851401	7.9335429	n/a	2	ITI_onset	n/a	n/a	n/a
21.583779900999996	0.34479669999999896	5.366691499000001	0.34479669999999896	3	stim1	n/a	n/a	n/a
21.928576601	0.005144099000004644	5.021894799000002	n/a	3	choice1	0	n/a	n/a
26.9504714	0.2792330000000002	2.7999746000000014	0.2792330000000002	3	stim2	n/a	0	n/a
27.2297044	0.0207416000000012	2.5207416000000014	n/a	3	choice2	n/a	0	n/a
29.750446	1.5	n/a	n/a	3	outcome	n/a	n/a	0
31.250446	3.0667897999999987	5.3835331	n/a	3	ITI_onset	n/a	n/a	n/a
34.317235800000006	0.28739700000000445	2.316743300000002	0.28739700000000445	4	stim1	n/a	n/a	n/a
34.604632800000005	0.012657399999996415	2.0293462999999976	n/a	4	choice1	0	n/a	n/a
36.633979100000005	0.6856964999999982	2.699980199999998	0.6856964999999982	4	stim2	n/a	1	n/a
37.3196756	0.014283699999999953	2.0142837	n/a	4	choice2	n/a	1	n/a
39.333959300000004	1.5	n/a	n/a	4	outcome	n/a	n/a	0
40.833959300000004	4.0667878000000055	6.9335270009999945	n/a	4	ITI_onset	n/a	n/a	n/a
44.900747100000004	0.3369388999999937	2.8667392009999895	0.3369388999999937	5	stim1	n/a	n/a	n/a
45.237686	0.013067900000009104	2.529800300999996	n/a	5	choice1	0	n/a	n/a
47.767486301000005	1.1630797000000022	7.183308499000006	1.1630797000000022	5	stim2	n/a	1	n/a
48.930566001	0.020228799000004075	6.020228799000004	n/a	5	choice2	n/a	1	n/a
54.95079480000001	1.5	n/a	n/a	5	outcome	n/a	n/a	0
56.45079480000001	5.566919099999999	9.333639800000004	n/a	5	ITI_onset	n/a	n/a	n/a
62.017713900000004	1.2439232000000047	3.7667207000000054	1.2439232000000047	6	stim1	n/a	n/a	n/a
63.2616371	0.006041400000001886	2.5227975000000007	n/a	6	choice1	0	n/a	n/a
65.78443460000001	0.3871588009999978	2.900025099999999	0.3871588009999978	6	stim2	n/a	0	n/a
66.17159340100001	0.012866299000001163	2.512866299000001	n/a	6	choice2	n/a	0	n/a
68.6844597	1.5	n/a	n/a	6	outcome	n/a	n/a	1
70.1844597	2.0667562000000035	5.100135699999999	n/a	6	ITI_onset	n/a	n/a	n/a
72.2512159	0.510289499999999	3.0333794999999957	0.510289499999999	7	stim1	n/a	n/a	n/a
72.7615054	0.006280199999993783	2.5230899999999967	n/a	7	choice1	0	n/a	n/a
75.2845954	0.4046003000000055	2.416700799999991	0.4046003000000055	7	stim2	n/a	0	n/a
75.68919570000001	0.012100499999985914	2.012100499999986	n/a	7	choice2	n/a	0	n/a
77.7012962	1.5	n/a	n/a	7	outcome	n/a	n/a	1
79.2012962	7.5667641	9.950145300000004	n/a	7	ITI_onset	n/a	n/a	n/a
86.7680603	0.35742440000000353	2.3833812000000036	0.35742440000000353	8	stim1	n/a	n/a	n/a
87.1254847	0.00922210100000666	2.0259568	n/a	8	choice1	0	n/a	n/a
89.1514415	0.6292851000000083	6.133390100000004	0.6292851000000083	8	stim2	n/a	0	n/a
89.78072660000001	0.004104999999995925	5.504104999999996	n/a	8	choice2	n/a	0	n/a
95.2848316	1.5	n/a	n/a	8	outcome	n/a	n/a	1
96.7848316	4.066872399999993	10.966988899999997	n/a	8	ITI_onset	n/a	n/a	n/a
100.851704	0.37544120000000114	6.900116500000004	0.37544120000000114	9	stim1	n/a	n/a	n/a
101.2271452	0.007881300000008196	6.524675300000003	n/a	9	choice1	0	n/a	n/a
107.75182050000001	0.32974439999999594	2.3499953000000096	0.32974439999999594	9	stim2	n/a	0	n/a
108.08156489999999	0.020250900000013644	2.0202509000000135	n/a	9	choice2	n/a	0	n/a
110.10181580000003	1.5	n/a	n/a	9	outcome	n/a	n/a	1
111.60181580000003	3.0668021000000008	10.083545499999978	n/a	9	ITI_onset	n/a	n/a	n/a
114.66861790000002	0.4930828999999794	7.016743399999978	0.4930828999999794	10	stim1	n/a	n/a	n/a
115.1617008	0.006886001000006217	6.523660499999998	n/a	10	choice1	0	n/a	n/a
121.68536129999998	0.27625990000000455	4.783326000000001	0.27625990000000455	10	stim2	n/a	0	n/a
121.9616212	0.007066099999996368	4.507066099999997	n/a	10	choice2	n/a	0	n/a
126.4686873	1.5	n/a	n/a	10	outcome	n/a	n/a	0
127.9686873	5.066863800000021	12.483799200000009	n/a	10	ITI_onset	n/a	n/a	n/a
133.03555110000002	0.3901316999999981	7.416935399999987	0.3901316999999981	11	stim1	n/a	n/a	n/a
133.4256828	0.009889800000004471	7.02680369999999	n/a	11	choice1	0	n/a	n/a
140.4524865	0.36712069999999947	3.883208899999998	0.36712069999999947	11	stim2	n/a	0	n/a
140.8196072	0.016088199999998325	3.516088199999998	n/a	11	choice2	n/a	0	n/a
144.3356954	1.5	n/a	n/a	11	outcome	n/a	n/a	1
145.8356954	4.066797699999996	7.133515400000004	n/a	11	ITI_onset	n/a	n/a	n/a
149.9024931	0.5407346000000253	3.0667177000000083	0.5407346000000253	12	stim1	n/a	n/a	n/a
150.44322770000002	0.009271799999987706	2.525983099999983	n/a	12	choice1	0	n/a	n/a
152.9692108	2.5840407000000125	4.600033100000001	2.5840407000000125	12	stim2	n/a	0	n/a
155.55325150000002	0.015992399999988267	2.0159923999999885	n/a	12	choice2	n/a	0	n/a
157.5692439	1.5	n/a	n/a	12	outcome	n/a	n/a	0
159.0692439	2.5667902999999934	10.466898000999993	n/a	12	ITI_onset	n/a	n/a	n/a
161.63603419999998	0.37162570000000417	7.9001077010000005	0.37162570000000417	13	stim1	n/a	n/a	n/a
162.0076599	0.011648300000000745	7.528482000999997	n/a	13	choice1	0	n/a	n/a
169.536141901	0.29510069900000235	5.299919798999996	0.29510069900000235	13	stim2	n/a	0	n/a
169.8312426	0.004819099999993341	5.0048190999999935	n/a	13	choice2	n/a	0	n/a
174.8360617	1.5	n/a	n/a	13	outcome	n/a	n/a	0
176.3360617	4.566933000000019	8.40038380000001	n/a	13	ITI_onset	n/a	n/a	n/a
180.90299470000002	0.3028871999999974	3.8334507999999916	0.3028871999999974	14	stim1	n/a	n/a	n/a
181.2058819	0.013826200000010431	3.530563599999994	n/a	14	choice1	0	n/a	n/a
184.7364455	0.33419130000000585	5.349971500000014	0.33419130000000585	14	stim2	n/a	0	n/a
185.07063680000002	0.015780200000008335	5.015780200000008	n/a	14	choice2	n/a	0	n/a
190.086417	1.5	n/a	n/a	14	outcome	n/a	n/a	0
191.586417	6.066869099999982	8.500209999999992	n/a	14	ITI_onset	n/a	n/a	n/a
197.6532861	0.40192560000001687	2.4333409000000104	0.40192560000001687	15	stim1	n/a	n/a	n/a
198.05521170000003	0.014781300000002376	2.0314152999999933	n/a	15	choice1	0	n/a	n/a
200.08662700000002	0.582178500000009	5.600234200000006	0.582178500000009	15	stim2	n/a	0	n/a
200.66880550000002	0.01805569999999716	5.018055699999997	n/a	15	choice2	n/a	0	n/a
205.6868612	1.5	n/a	n/a	15	outcome	n/a	n/a	0
207.1868612	4.566678699999989	10.383400499999988	n/a	15	ITI_onset	n/a	n/a	n/a
211.7535399	0.2820632000000041	5.816721799999999	0.2820632000000041	16	stim1	n/a	n/a	n/a
212.0356031	0.01793469999998342	5.534658599999995	n/a	16	choice1	1	n/a	n/a
217.5702617	0.2704630999999936	4.283397300000011	0.2704630999999936	16	stim2	n/a	1	n/a
217.8407248	0.012934200000017881	4.012934200000018	n/a	16	choice2	n/a	1	n/a
221.85365900000002	1.5	n/a	n/a	16	outcome	n/a	n/a	1
223.35365900000002	6.56682249999998	8.933542300000001	n/a	16	ITI_onset	n/a	n/a	n/a
229.9204815	0.33381830000001356	2.3667198000000207	0.33381830000001356	17	stim1	n/a	n/a	n/a
230.2542998	0.016213199999998325	2.032901500000007	n/a	17	choice1	1	n/a	n/a
232.28720130000002	0.5576370999999927	6.066674099999974	0.5576370999999927	17	stim2	n/a	0	n/a
232.84483840000001	0.009036999999982072	5.509036999999982	n/a	17	choice2	n/a	0	n/a
238.35387539999996	1.5	n/a	n/a	17	outcome	n/a	n/a	1
239.85387539999996	6.566851300000039	10.350317500000005	n/a	17	ITI_onset	n/a	n/a	n/a
246.42072670000002	0.2530342999999993	3.783466199999966	0.2530342999999993	18	stim1	n/a	n/a	n/a
246.67376100000004	0.013679499999969267	3.5304318999999666	n/a	18	choice1	1	n/a	n/a
250.20419289999998	0.2813640000000014	4.800013600000006	0.2813640000000014	18	stim2	n/a	1	n/a
250.48555689999998	0.018649600000004284	4.518649600000004	n/a	18	choice2	n/a	1	n/a
255.00420649999998	1.5	n/a	n/a	18	outcome	n/a	n/a	0
256.50420649999995	4.566815899999987	8.050187900000019	n/a	18	ITI_onset	n/a	n/a	n/a
261.07102239999995	0.9527146010000143	3.483372000000032	0.9527146010000143	19	stim1	n/a	n/a	n/a
262.023737001	0.013958098999981303	2.530657399000018	n/a	19	choice1	0	n/a	n/a
264.5543944	4.819442600000009	7.833451699999976	4.819442600000009	19	stim2	n/a	1	n/a
269.373837	0.014009099999966565	3.0140090999999667	n/a	19	choice2	n/a	1	n/a
272.3878461	1.5	n/a	n/a	19	outcome	n/a	n/a	1
273.8878461	4.5668256999999866	8.366837300000014	n/a	19	ITI_onset	n/a	n/a	n/a
278.45467179999997	0.26666419999999924	3.800011600000027	0.26666419999999924	20	stim1	n/a	n/a	n/a
278.72133599999995	0.016659000000043306	3.533347400000028	n/a	20	choice1	0	n/a	n/a
282.2546834	0.26461200000002283	2.2833251000000163	0.26461200000002283	20	stim2	n/a	0	n/a
282.51929540000003	0.018713099999993574	2.0187130999999936	n/a	20	choice2	n/a	0	n/a
284.5380085	1.5	n/a	n/a	20	outcome	n/a	n/a	0
286.0380085	3.066845399999991	5.500191099999997	n/a	20	ITI_onset	n/a	n/a	n/a
289.10485389999997	0.4119415000000154	2.433345700000005	0.4119415000000154	21	stim1	n/a	n/a	n/a
289.5167954	0.00470599999994738	2.02140419999999	n/a	21	choice1	1	n/a	n/a
291.5381996	0.32577779999998163	2.3333850999999557	0.32577779999998163	21	stim2	n/a	1	n/a
291.86397739999995	0.007607299999974202	2.0076072999999743	n/a	21	choice2	n/a	1	n/a
293.87158469999997	1.5	n/a	n/a	21	outcome	n/a	n/a	1
295.37158469999997	6.066786400000041	9.116783800000034	n/a	21	ITI_onset	n/a	n/a	n/a
301.4383711	1.0262692999999854	3.049997399999993	1.0262692999999854	22	stim1	n/a	n/a	n/a
302.46464039999995	0.007068000000028406	2.0237281000000076	n/a	22	choice1	1	n/a	n/a
304.4883685	0.369398199999996	6.383352899999998	0.369398199999996	22	stim2	n/a	1	n/a
304.85776669999996	0.01395470000000205	6.013954700000002	n/a	22	choice2	n/a	1	n/a
310.87172139999996	1.5	n/a	n/a	22	outcome	n/a	n/a	1
312.37172139999996	5.583560599999968	8.033598200000007	n/a	22	ITI_onset	n/a	n/a	n/a
317.95528199999995	0.41907270000001884	2.45003760000004	0.41907270000001884	23	stim1	n/a	n/a	n/a
318.37435469999997	0.014282200000016019	2.0309649000000207	n/a	23	choice1	1	n/a	n/a
320.4053196	5.6996143000000155	10.216767300000006	5.6996143000000155	23	stim2	n/a	0	n/a
326.1049339	0.01715299999999115	4.5171529999999915	n/a	23	choice2	n/a	0	n/a
330.6220869	1.5	n/a	n/a	23	outcome	n/a	n/a	1
332.1220869	5.066818499999994	7.750258799999952	n/a	23	ITI_onset	n/a	n/a	n/a
337.1889054	0.6508494000000065	2.6834402999999583	0.6508494000000065	24	stim1	n/a	n/a	n/a
337.8397548	0.015821599999966567	2.032590899999952	n/a	24	choice1	1	n/a	n/a
339.8723456999999	0.32435600000002884	5.8332507000000335	0.32435600000002884	24	stim2	n/a	1	n/a
340.1967017	0.008894700000004377	5.508894700000004	n/a	24	choice2	n/a	1	n/a
345.7055964	1.5	n/a	n/a	24	outcome	n/a	n/a	1
347.2055964	3.0668987010000275	5.933605899999966	n/a	24	ITI_onset	n/a	n/a	n/a
350.272495101	0.3314344989999663	2.8667071989999386	0.3314344989999663	25	stim1	n/a	n/a	n/a
350.60392959999996	0.018560699999972712	2.535272699999972	n/a	25	choice1	1	n/a	n/a
353.13920229999997	0.4742577000000165	3.9832990000000574	0.4742577000000165	25	stim2	n/a	1	n/a
353.61346	0.009041300000040792	3.5090413000000407	n/a	25	choice2	n/a	1	n/a
357.1225013	1.5	n/a	n/a	25	outcome	n/a	n/a	1
358.6225013	1.0	1.0	n/a	25	ITI_onset	n/a	n/a	n/a
