onset	duration	duration2fb	response_time	trial	event	choice1	state	reward
0.0	0.45118213899999865	2.9833895219999995	0.45118213899999865	1	stim1	n/a	n/a	n/a
0.45118213900000015	0.015791471000000456	2.5322073830000007	n/a	1	choice1	0	n/a	n/a
2.9833895219999995	0.36412197000000013	2.8833790630000005	0.36412197000000013	1	stim2	n/a	1	n/a
3.347511491999999	0.01925709300000017	2.5192570930000002	n/a	1	choice2	n/a	1	n/a
5.866768584999999	1.5	n/a	n/a	1	outcome	n/a	n/a	1
7.366768584999999	4.066771055999998	7.450252454999998	n/a	1	ITI_onset	n/a	n/a	n/a
11.433539641	0.35639000400000076	3.3834813990000003	0.35639000400000076	2	stim1	n/a	n/a	n/a
11.789929644999997	0.010266300999999657	3.0270913949999994	n/a	2	choice1	0	n/a	n/a
14.817021039999997	0.6045440300000009	3.116637297999998	0.6045440300000009	2	stim2	n/a	1	n/a
15.42156507	0.012093268000000535	2.512093267999997	n/a	2	choice2	n/a	1	n/a
17.933658337999997	1.5	n/a	n/a	2	outcome	n/a	n/a	1
19.433658337999997	3.0667065740000035	5.916766355000007	n/a	2	ITI_onset	n/a	n/a	n/a
22.500364912	0.8195380519999962	2.8500597810000037	0.8195380519999962	3	stim1	n/a	n/a	n/a
23.319902963999997	0.01382944700000371	2.0305217290000073	n/a	3	choice1	0	n/a	n/a
25.350424693000004	0.6326748239999943	2.650043356999995	0.6326748239999943	3	stim2	n/a	1	n/a
25.983099516999996	0.01736853300000075	2.017368533000001	n/a	3	choice2	n/a	1	n/a
28.00046805	1.5	n/a	n/a	3	outcome	n/a	n/a	1
29.50046805	3.566757902999998	7.183460643000005	n/a	3	ITI_onset	n/a	n/a	n/a
33.06722595299999	0.5908287879999989	3.616702740000008	0.5908287879999989	4	stim1	n/a	n/a	n/a
33.658054741	0.009155364000005647	3.025873952000009	n/a	4	choice1	0	n/a	n/a
36.683928693	0.4989944469999973	3.516714257999993	0.4989944469999973	4	stim2	n/a	1	n/a
37.18292314	0.017719810999995388	3.017719810999995	n/a	4	choice2	n/a	1	n/a
40.20064295099999	1.5	n/a	n/a	4	outcome	n/a	n/a	1
41.70064295099999	4.5668586340000035	7.466959012999999	n/a	4	ITI_onset	n/a	n/a	n/a
46.267501585000005	0.3755492529999974	2.900100378999996	0.3755492529999974	5	stim1	n/a	n/a	n/a
46.64305083799999	0.007729400000003807	2.5245511259999986	n/a	5	choice1	0	n/a	n/a
49.167601964	0.81124564500001	4.816595015999999	0.81124564500001	5	stim2	n/a	1	n/a
49.978847609	0.005349370999989333	4.00534937099999	n/a	5	choice2	n/a	1	n/a
53.98419697999999	1.5	n/a	n/a	5	outcome	n/a	n/a	1
55.48419697999999	2.566772339000003	7.700161747999998	n/a	5	ITI_onset	n/a	n/a	n/a
58.05096931899999	0.6029326419999997	5.133389408999996	0.6029326419999997	6	stim1	n/a	n/a	n/a
58.65390196099999	0.013735773000007612	4.530456766999996	n/a	6	choice1	0	n/a	n/a
63.18435872799999	0.4791865370000014	3.500011710000006	0.4791865370000014	6	stim2	n/a	1	n/a
63.663545264999996	0.020825173000004724	3.020825173000005	n/a	6	choice2	n/a	1	n/a
66.684370438	1.5	n/a	n/a	6	outcome	n/a	n/a	1
68.184370438	3.5668085889999928	5.883517649999995	n/a	6	ITI_onset	n/a	n/a	n/a
71.75117902699999	0.2907943660000019	2.3167090610000014	0.2907943660000019	7	stim1	n/a	n/a	n/a
72.04197339299999	0.009209259000010206	2.0259146949999995	n/a	7	choice1	0	n/a	n/a
74.06788808799999	0.6716163180000003	4.183339380000005	0.6716163180000003	7	stim2	n/a	1	n/a
74.739504406	0.011723062000004574	3.5117230620000046	n/a	7	choice2	n/a	1	n/a
78.251227468	1.5	n/a	n/a	7	outcome	n/a	n/a	1
79.751227468	2.566800409000003	10.200309959000005	n/a	7	ITI_onset	n/a	n/a	n/a
82.318027877	0.6078758779999917	7.633509550000002	0.6078758779999917	8	stim1	n/a	n/a	n/a
82.925903755	0.008795745000010357	7.025633672000011	n/a	8	choice1	0	n/a	n/a
89.951537427	0.2753743839999952	2.7833950709999917	0.2753743839999952	8	stim2	n/a	1	n/a
90.226911811	0.008020686999996541	2.5080206869999966	n/a	8	choice2	n/a	1	n/a
92.73493249799999	1.5	n/a	n/a	8	outcome	n/a	n/a	1
94.23493249799999	4.5666916580000105	10.300118151999996	n/a	8	ITI_onset	n/a	n/a	n/a
98.801624156	0.7123222229999956	5.733426493999985	0.7123222229999956	9	stim1	n/a	n/a	n/a
99.513946379	0.004327616999988095	5.021104270999989	n/a	9	choice1	0	n/a	n/a
104.53505064999999	0.6429314999999916	3.149999727000017	0.6429314999999916	9	stim2	n/a	0	n/a
105.17798214999998	0.0070682270000252175	2.5070682270000253	n/a	9	choice2	n/a	0	n/a
107.68505037700001	1.5	n/a	n/a	9	outcome	n/a	n/a	0
109.18505037700001	6.566887025000003	14.416991718999983	n/a	9	ITI_onset	n/a	n/a	n/a
115.75193740200001	0.31301149899998565	7.850104693999979	0.31301149899998565	10	stim1	n/a	n/a	n/a
116.06494890100001	0.02031830600000103	7.537093194999994	n/a	10	choice1	1	n/a	n/a
123.60204209599999	0.3484504789999919	2.8667733970000118	0.3484504789999919	10	stim2	n/a	0	n/a
123.95049257499997	0.018322918000019853	2.51832291800002	n/a	10	choice2	n/a	0	n/a
126.468815493	1.5	n/a	n/a	10	outcome	n/a	n/a	0
127.968815493	6.566722454999981	10.983483195999986	n/a	10	ITI_onset	n/a	n/a	n/a
134.53553794799998	0.3869393220000202	4.416760741000005	0.3869393220000202	11	stim1	n/a	n/a	n/a
134.92247727	0.013160574999987148	4.029821418999985	n/a	11	choice1	0	n/a	n/a
138.95229868899997	0.32356748399999924	3.333323068000027	0.32356748399999924	11	stim2	n/a	1	n/a
139.275866173	0.009755584000027738	3.0097555840000276	n/a	11	choice2	n/a	1	n/a
142.285621757	1.5	n/a	n/a	11	outcome	n/a	n/a	0
143.785621757	4.066840829999972	7.933523279999994	n/a	11	ITI_onset	n/a	n/a	n/a
147.852462587	0.3454275630000047	3.866682450000022	0.3454275630000047	12	stim1	n/a	n/a	n/a
148.19789014999998	0.004589070999994874	3.5212548870000173	n/a	12	choice1	0	n/a	n/a
151.719145037	0.78166675199999	2.8000169389999647	0.78166675199999	12	stim2	n/a	0	n/a
152.500811789	0.018350186999974538	2.0183501869999745	n/a	12	choice2	n/a	0	n/a
154.51916197599996	1.5	n/a	n/a	12	outcome	n/a	n/a	1
156.01916197599996	3.5668249500000093	6.250165934000019	n/a	12	ITI_onset	n/a	n/a	n/a
159.58598692599998	0.6539680459999945	2.6833409840000093	0.6539680459999945	13	stim1	n/a	n/a	n/a
160.23995497199996	0.012742250000010245	2.029372938000015	n/a	13	choice1	0	n/a	n/a
162.26932791	0.7504293130000006	5.766702308000007	0.7504293130000006	13	stim2	n/a	1	n/a
163.019757223	0.016272995000006632	5.016272995000007	n/a	13	choice2	n/a	1	n/a
168.036030218	1.5	n/a	n/a	13	outcome	n/a	n/a	1
169.536030218	3.100231491000013	8.266891580999975	n/a	13	ITI_onset	n/a	n/a	n/a
172.63626170900002	1.6326764269999985	5.1666600899999615	1.6326764269999985	14	stim1	n/a	n/a	n/a
174.268938136	0.017271650999988196	3.5339836629999626	n/a	14	choice1	0	n/a	n/a
177.80292179899996	0.4669976700000116	2.983330975000019	0.4669976700000116	14	stim2	n/a	0	n/a
178.26991946899997	0.016333305000007386	2.5163333050000074	n/a	14	choice2	n/a	0	n/a
180.786252774	1.5	n/a	n/a	14	outcome	n/a	n/a	0
182.286252774	2.566812600000005	9.43359032800002	n/a	14	ITI_onset	n/a	n/a	n/a
184.853065374	0.33585900600001334	6.866777728000016	0.33585900600001334	15	stim1	n/a	n/a	n/a
185.18892438	0.01413773799999035	6.530918722000002	n/a	15	choice1	0	n/a	n/a
191.719843102	0.39303584099997535	6.399997882999974	0.39303584099997535	15	stim2	n/a	1	n/a
192.112878943	0.006962041999999201	6.006962042	n/a	15	choice2	n/a	1	n/a
198.119840985	1.5	n/a	n/a	15	outcome	n/a	n/a	0
199.619840985	3.0668430750000115	6.900237842000031	n/a	15	ITI_onset	n/a	n/a	n/a
202.68668406	0.3021478650000063	3.8333947670000197	0.3021478650000063	16	stim1	n/a	n/a	n/a
202.988831925	0.014526227999973343	3.5312469020000137	n/a	16	choice1	1	n/a	n/a
206.52007882700002	0.3448231729999825	3.849965305999969	0.3448231729999825	16	stim2	n/a	0	n/a
206.864902	0.005142132999986643	3.505142132999987	n/a	16	choice2	n/a	0	n/a
210.370044133	1.5	n/a	n/a	16	outcome	n/a	n/a	1
211.870044133	2.566836338000023	7.383565448999987	n/a	16	ITI_onset	n/a	n/a	n/a
214.43688047100002	0.29390742799997677	4.816729110999964	0.29390742799997677	17	stim1	n/a	n/a	n/a
214.73078789899998	0.006070532999990974	4.522821682999988	n/a	17	choice1	1	n/a	n/a
219.25360958199997	0.34222018600002047	3.8499983479999935	0.34222018600002047	17	stim2	n/a	0	n/a
219.595829768	0.007778161999973236	3.507778161999973	n/a	17	choice2	n/a	0	n/a
223.10360792999998	1.5	n/a	n/a	17	outcome	n/a	n/a	1
224.60360792999998	5.5669261630000255	10.400256770000036	n/a	17	ITI_onset	n/a	n/a	n/a
230.170534093	0.3099010039999848	4.83333060700001	0.3099010039999848	18	stim1	n/a	n/a	n/a
230.48043509699997	0.006698022000025958	4.523429603000026	n/a	18	choice1	1	n/a	n/a
235.0038647	0.37694666500002494	6.383315223999991	0.37694666500002494	18	stim2	n/a	0	n/a
235.38081136500003	0.006368558999965899	6.006368558999966	n/a	18	choice2	n/a	0	n/a
241.387179924	1.5	n/a	n/a	18	outcome	n/a	n/a	1
242.887179924	8.066975567000016	15.600409375000018	n/a	18	ITI_onset	n/a	n/a	n/a
250.954155491	0.5067713249999797	7.533433808000002	0.5067713249999797	19	stim1	n/a	n/a	n/a
251.46092681599998	0.009917267999961041	7.026662483000022	n/a	19	choice1	1	n/a	n/a
258.48758929900004	0.2762877069999813	4.283326098999998	0.2762877069999813	19	stim2	n/a	0	n/a
258.763877006	0.007038392000016757	4.007038392000017	n/a	19	choice2	n/a	0	n/a
262.770915398	1.5	n/a	n/a	19	outcome	n/a	n/a	1
264.270915398	3.066811637000006	8.55022922899999	n/a	19	ITI_onset	n/a	n/a	n/a
267.337727035	0.4544068400000106	5.4834175919999835	0.4544068400000106	20	stim1	n/a	n/a	n/a
267.79213387500005	0.01232103599992115	5.029010751999973	n/a	20	choice1	1	n/a	n/a
272.821144627	0.40630228100001115	2.416798596999957	0.40630228100001115	20	stim2	n/a	0	n/a
273.227446908	0.010496315999946092	2.010496315999946	n/a	20	choice2	n/a	0	n/a
275.23794322399993	1.5	n/a	n/a	20	outcome	n/a	n/a	1
276.73794322399993	2.5666696820000654	6.783508314000035	n/a	20	ITI_onset	n/a	n/a	n/a
279.30461290600005	0.6792055279999623	4.21683863199997	0.6792055279999623	21	stim1	n/a	n/a	n/a
279.983818434	0.020801433000015093	3.5376331040000077	n/a	21	choice1	1	n/a	n/a
283.521451538	0.468586602000054	3.483266814999981	0.468586602000054	21	stim2	n/a	0	n/a
283.99003814	0.01468021299992688	3.014680212999927	n/a	21	choice2	n/a	0	n/a
287.004718353	1.5	n/a	n/a	21	outcome	n/a	n/a	0
288.504718353	5.5668284790000175	8.916819128000002	n/a	21	ITI_onset	n/a	n/a	n/a
294.07154683199997	0.3148326910000178	3.349990648999985	0.3148326910000178	22	stim1	n/a	n/a	n/a
294.386379523	0.01844578599993838	3.0351579579999672	n/a	22	choice1	0	n/a	n/a
297.421537481	0.448377048000053	5.966732367000018	0.448377048000053	22	stim2	n/a	1	n/a
297.869914529	0.018355318999965675	5.518355318999966	n/a	22	choice2	n/a	1	n/a
303.388269848	1.5	n/a	n/a	22	outcome	n/a	n/a	0
304.888269848	6.066841631999996	8.466873198999965	n/a	22	ITI_onset	n/a	n/a	n/a
310.95511147999997	0.370769626000023	2.400031566999969	0.370769626000023	23	stim1	n/a	n/a	n/a
311.325881106	0.012604946999985258	2.029261940999946	n/a	23	choice1	1	n/a	n/a
313.35514304699996	0.3492008340000175	5.866727523000038	0.3492008340000175	23	stim2	n/a	0	n/a
313.704343881	0.01752668900002027	5.51752668900002	n/a	23	choice2	n/a	0	n/a
319.22187057	1.5	n/a	n/a	23	outcome	n/a	n/a	1
320.72187057	4.0668114770000106	9.216951555000035	n/a	23	ITI_onset	n/a	n/a	n/a
324.788682047	0.6137083759999951	5.1501400780000255	0.6137083759999951	24	stim1	n/a	n/a	n/a
325.402390423	0.01961959899996873	4.536431702000031	n/a	24	choice1	1	n/a	n/a
329.93882212500006	0.6130398249999853	5.133252907999966	0.6130398249999853	24	stim2	n/a	1	n/a
330.55186195000005	0.020213082999980543	4.52021308299998	n/a	24	choice2	n/a	1	n/a
335.072075033	1.5	n/a	n/a	24	outcome	n/a	n/a	0
336.572075033	5.066926324	11.933658819000003	n/a	24	ITI_onset	n/a	n/a	n/a
341.639001357	0.3368473959999974	6.8667324950000035	0.3368473959999974	25	stim1	n/a	n/a	n/a
341.975848753	0.013122399999992922	6.529885099000007	n/a	25	choice1	0	n/a	n/a
348.505733852	0.31700355699995997	4.333337502999988	0.31700355699995997	25	stim2	n/a	1	n/a
348.82273740899996	0.016333946000027934	4.016333946000028	n/a	25	choice2	n/a	1	n/a
352.839071355	1.5	n/a	n/a	25	outcome	n/a	n/a	0
354.339071355	1.0	1.0	n/a	25	ITI_onset	n/a	n/a	n/a
