onset	duration	duration2fb	response_time	trial	event	choice1	state	reward
0.0	0.3450639999999985	3.8834030999999993	0.3450639999999985	1	stim1	n/a	n/a	n/a
0.3450640000000007	0.021644100000001346	3.538339100000001	n/a	1	choice1	1	n/a	n/a
3.8834031000000024	0.6046539999999986	3.6166673999999985	0.6046539999999986	1	stim2	n/a	0	n/a
4.488057099999999	0.01201339999999982	3.0120134	n/a	1	choice2	n/a	0	n/a
7.5000705	1.5	n/a	n/a	1	outcome	n/a	n/a	1
9.0000705	4.566809399999999	10.666960599999998	n/a	1	ITI_onset	n/a	n/a	n/a
13.566879900000004	0.5731621000000013	6.1001512	0.5731621000000013	2	stim1	n/a	n/a	n/a
14.140042000000001	0.010185899999996764	5.526989099999999	n/a	2	choice1	1	n/a	n/a
19.667031100000003	0.5400190999999978	6.049968199999996	0.5400190999999978	2	stim2	n/a	1	n/a
20.207050199999998	0.009949099999997997	5.509949099999998	n/a	2	choice2	n/a	1	n/a
25.716999299999998	1.5	n/a	n/a	2	outcome	n/a	n/a	1
27.216999299999998	7.566837700000003	10.083686300000002	n/a	2	ITI_onset	n/a	n/a	n/a
34.783837	0.49517609999999695	2.5168485999999977	0.49517609999999695	3	stim1	n/a	n/a	n/a
35.2790131	0.004840900000002876	2.0216725000000006	n/a	3	choice1	0	n/a	n/a
37.3006856	0.6493155000000043	8.166494600000005	0.6493155000000043	3	stim2	n/a	0	n/a
37.9500011	0.0171791000000012	7.517179100000001	n/a	3	choice2	n/a	0	n/a
45.46718020000001	1.5	n/a	n/a	3	outcome	n/a	n/a	1
46.96718020000001	2.567347145000007	7.966938699999999	n/a	3	ITI_onset	n/a	n/a	n/a
49.53452734500001	0.3634177549999877	5.399591554999992	0.3634177549999877	4	stim1	n/a	n/a	n/a
49.897945099999994	0.01946570000000065	5.036173800000004	n/a	4	choice1	0	n/a	n/a
54.93411890000001	0.9909382000000041	7.500020399999994	0.9909382000000041	4	stim2	n/a	0	n/a
55.92505710000001	0.009082199999989824	6.50908219999999	n/a	4	choice2	n/a	0	n/a
62.43413929999999	1.5	n/a	n/a	4	outcome	n/a	n/a	0
63.93413929999999	3.0668205000000017	7.9168744	n/a	4	ITI_onset	n/a	n/a	n/a
67.0009598	0.8187347000000009	4.850053899999999	0.8187347000000009	5	stim1	n/a	n/a	n/a
67.8196945	0.01459330000000773	4.031319199999998	n/a	5	choice1	0	n/a	n/a
71.85101370000001	0.6669752000000008	8.683741500000004	0.6669752000000008	5	stim2	n/a	0	n/a
72.5179889	0.016766300000002957	8.016766300000002	n/a	5	choice2	n/a	0	n/a
80.5347552	1.5	n/a	n/a	5	outcome	n/a	n/a	0
82.0347552	5.0665242	7.466536200000002	n/a	5	ITI_onset	n/a	n/a	n/a
87.10127940000001	0.3768029999999999	2.4000120000000025	0.3768029999999999	6	stim1	n/a	n/a	n/a
87.4780824	0.006492499999993015	2.0232090000000027	n/a	6	choice1	0	n/a	n/a
89.50129140000001	0.8316609999999928	3.8500227999999916	0.8316609999999928	6	stim2	n/a	0	n/a
90.33295239999998	0.018361799999998766	3.0183617999999988	n/a	6	choice2	n/a	0	n/a
93.35131419999999	1.5	n/a	n/a	6	outcome	n/a	n/a	0
94.85131419999999	4.566811700000006	6.833452000000005	n/a	6	ITI_onset	n/a	n/a	n/a
99.4181259	0.24336939999999596	2.2666402999999993	0.24336939999999596	7	stim1	n/a	n/a	n/a
99.66149529999998	0.006611199999999371	2.023270900000003	n/a	7	choice1	1	n/a	n/a
101.68476620000001	0.6446949000000022	3.150046000000002	0.6446949000000022	7	stim2	n/a	1	n/a
102.3294611	0.0053510999999998605	2.5053511	n/a	7	choice2	n/a	1	n/a
104.83481219999999	1.5	n/a	n/a	7	outcome	n/a	n/a	1
106.33481219999999	6.5668998999999895	15.300262699999992	n/a	7	ITI_onset	n/a	n/a	n/a
112.9017121	0.7041773000000103	8.733362800000002	0.7041773000000103	8	stim1	n/a	n/a	n/a
113.6058894	0.012408300000010059	8.029185499999992	n/a	8	choice1	1	n/a	n/a
121.63507489999998	0.604786300000007	2.616657700000011	0.604786300000007	8	stim2	n/a	1	n/a
122.2398612	0.011871400000003631	2.0118714000000035	n/a	8	choice2	n/a	1	n/a
124.2517326	1.5	n/a	n/a	8	outcome	n/a	n/a	1
125.7517326	2.5667759999999835	5.050149999999994	n/a	8	ITI_onset	n/a	n/a	n/a
128.31850859999997	0.45191440000000876	2.4833740000000106	0.45191440000000876	9	stim1	n/a	n/a	n/a
128.770423	0.014755299999989802	2.031459600000002	n/a	9	choice1	0	n/a	n/a
130.8018826	0.9089182999999903	6.916653099999996	0.9089182999999903	9	stim2	n/a	0	n/a
131.71080089999998	0.007734800000005634	6.007734800000006	n/a	9	choice2	n/a	0	n/a
137.7185357	1.5	n/a	n/a	9	outcome	n/a	n/a	0
139.2185357	8.566952400000009	16.25051209999999	n/a	9	ITI_onset	n/a	n/a	n/a
147.7854881	0.6623415000000096	7.683559699999983	0.6623415000000096	10	stim1	n/a	n/a	n/a
148.4478296	0.004311399999976857	7.021218199999974	n/a	10	choice1	1	n/a	n/a
155.46904779999997	0.5927776000000012	2.599876800000027	0.5927776000000012	10	stim2	n/a	1	n/a
156.06182539999998	0.00709920000002603	2.007099200000026	n/a	10	choice2	n/a	1	n/a
158.0689246	1.5	n/a	n/a	10	outcome	n/a	n/a	1
159.5689246	2.5667314999999946	6.066788499999995	n/a	10	ITI_onset	n/a	n/a	n/a
162.1356561	0.4671440000000002	3.500057000000001	0.4671440000000002	11	stim1	n/a	n/a	n/a
162.6028001	0.016192899999994553	3.0329130000000006	n/a	11	choice1	1	n/a	n/a
165.6357131	0.7140820999999996	3.233331199999986	0.7140820999999996	11	stim2	n/a	1	n/a
166.3497952	0.019249099999986356	2.5192490999999864	n/a	11	choice2	n/a	1	n/a
168.86904429999998	1.5	n/a	n/a	11	outcome	n/a	n/a	1
170.36904429999998	5.56683660000001	9.033595900000014	n/a	11	ITI_onset	n/a	n/a	n/a
175.9358809	0.44045509999999194	3.466759300000005	0.44045509999999194	12	stim1	n/a	n/a	n/a
176.37633599999998	0.009493400000006659	3.026304200000013	n/a	12	choice1	0	n/a	n/a
179.4026402	0.8520162999999884	6.366617299999984	0.8520162999999884	12	stim2	n/a	0	n/a
180.25465649999998	0.014600999999995111	5.514600999999995	n/a	12	choice2	n/a	0	n/a
185.76925749999998	1.5	n/a	n/a	12	outcome	n/a	n/a	1
187.26925749999998	5.5668191999999985	13.050288700000005	n/a	12	ITI_onset	n/a	n/a	n/a
192.83607669999998	0.44964949999999954	7.483469500000006	0.44964949999999954	13	stim1	n/a	n/a	n/a
193.28572619999997	0.01707719999999972	7.033820000000007	n/a	13	choice1	1	n/a	n/a
200.3195462	0.5678303000000015	2.583330099999992	0.5678303000000015	13	stim2	n/a	1	n/a
200.8873765	0.0154997999999905	2.0154997999999904	n/a	13	choice2	n/a	1	n/a
202.90287629999997	1.5	n/a	n/a	13	outcome	n/a	n/a	1
204.40287629999997	5.56680720000001	9.416843200000002	n/a	13	ITI_onset	n/a	n/a	n/a
209.9696835	0.3130034999999916	3.8500359999999927	0.3130034999999916	14	stim1	n/a	n/a	n/a
210.28268699999998	0.02032600000000093	3.5370325000000014	n/a	14	choice1	1	n/a	n/a
213.8197195	0.8358038999999989	5.350008499999996	0.8358038999999989	14	stim2	n/a	0	n/a
214.6555234	0.014204599999997299	4.514204599999998	n/a	14	choice2	n/a	0	n/a
219.169728	1.5	n/a	n/a	14	outcome	n/a	n/a	1
220.669728	6.1001714999999965	8.450241999999998	n/a	14	ITI_onset	n/a	n/a	n/a
226.76989949999998	0.3189470000000147	2.3500705000000015	0.3189470000000147	15	stim1	n/a	n/a	n/a
227.0888465	0.014403599999990547	2.0311234999999868	n/a	15	choice1	1	n/a	n/a
229.11997	0.6878136999999988	3.699978700000007	0.6878136999999988	15	stim2	n/a	0	n/a
229.8077837	0.012165000000008148	3.012165000000008	n/a	15	choice2	n/a	0	n/a
232.81994869999997	1.5	n/a	n/a	15	outcome	n/a	n/a	0
234.31994869999997	5.566845099999977	8.933526699999987	n/a	15	ITI_onset	n/a	n/a	n/a
239.8867938	0.3345465000000549	3.366681600000011	0.3345465000000549	16	stim1	n/a	n/a	n/a
240.22134030000004	0.015434199999959673	3.0321350999999557	n/a	16	choice1	1	n/a	n/a
243.25347539999999	2.145822000000044	4.166689700000046	2.145822000000044	16	stim2	n/a	1	n/a
245.3992974	0.020867700000002515	2.0208677000000024	n/a	16	choice2	n/a	1	n/a
247.42016510000005	1.5	n/a	n/a	16	outcome	n/a	n/a	1
248.92016510000005	2.5667961999999824	5.483472499999975	n/a	16	ITI_onset	n/a	n/a	n/a
251.4869613	0.3848118999999715	2.916676299999992	0.3848118999999715	17	stim1	n/a	n/a	n/a
251.87177319999998	0.015166599999996833	2.5318644000000203	n/a	17	choice1	1	n/a	n/a
254.4036376	0.790039300000004	6.8000047999999955	0.790039300000004	17	stim2	n/a	1	n/a
255.19367689999999	0.009965499999991152	6.009965499999991	n/a	17	choice2	n/a	1	n/a
261.20364240000004	1.5	n/a	n/a	17	outcome	n/a	n/a	1
262.70364240000004	4.066848899999982	7.383550899999973	n/a	17	ITI_onset	n/a	n/a	n/a
266.7704913	0.2807728000000352	3.31670199999999	0.2807728000000352	18	stim1	n/a	n/a	n/a
267.0512641	0.019180099999997764	3.035929199999955	n/a	18	choice1	1	n/a	n/a
270.08719329999997	0.6844367000000202	5.199995000000054	0.6844367000000202	18	stim2	n/a	1	n/a
270.77163	0.015558300000033342	4.515558300000033	n/a	18	choice2	n/a	1	n/a
275.2871883	1.5	n/a	n/a	18	outcome	n/a	n/a	0
276.7871883	6.566888599999947	8.850191699999966	n/a	18	ITI_onset	n/a	n/a	n/a
283.3540769	0.2617359000000288	2.283303100000019	0.2617359000000288	19	stim1	n/a	n/a	n/a
283.6158128	0.004925999999977648	2.0215671999999905	n/a	19	choice1	1	n/a	n/a
285.63738	0.4102164000000339	3.916716200000024	0.4102164000000339	19	stim2	n/a	1	n/a
286.04759640000003	0.006499799999990501	3.5064997999999905	n/a	19	choice2	n/a	1	n/a
289.55409620000006	1.5	n/a	n/a	19	outcome	n/a	n/a	1
291.05409620000006	6.0667869000000065	12.350227899999998	n/a	19	ITI_onset	n/a	n/a	n/a
297.12088310000007	0.2483212999999523	6.283440999999992	0.2483212999999523	20	stim1	n/a	n/a	n/a
297.3692044	0.018432500000053552	6.035119700000039	n/a	20	choice1	1	n/a	n/a
303.40432410000005	0.557850999999966	2.5666780000000142	0.557850999999966	20	stim2	n/a	1	n/a
303.9621751	0.008827000000048428	2.0088270000000485	n/a	20	choice2	n/a	1	n/a
305.9710021000001	1.5	n/a	n/a	20	outcome	n/a	n/a	1
307.4710021000001	6.066795399999944	10.466891799999983	n/a	20	ITI_onset	n/a	n/a	n/a
313.5377975	0.3749782000000123	4.400096400000039	0.3749782000000123	21	stim1	n/a	n/a	n/a
313.9127757	0.008373400000040419	4.025118200000026	n/a	21	choice1	1	n/a	n/a
317.9378939	0.7296511000000173	4.2499876999999975	0.7296511000000173	21	stim2	n/a	1	n/a
318.6675450000001	0.020336599999980536	3.5203365999999807	n/a	21	choice2	n/a	1	n/a
322.1878816	1.5	n/a	n/a	21	outcome	n/a	n/a	0
323.6878816	5.566783200000005	7.933526399999973	n/a	21	ITI_onset	n/a	n/a	n/a
329.25466480000006	0.34546159999998055	2.366743199999968	0.34546159999998055	22	stim1	n/a	n/a	n/a
329.6001264	0.004584199999982956	2.0212815999999876	n/a	22	choice1	1	n/a	n/a
331.62140800000003	0.6492803000000422	5.666622100000037	0.6492803000000422	22	stim2	n/a	1	n/a
332.2706883000001	0.017341799999994693	5.017341799999994	n/a	22	choice2	n/a	1	n/a
337.2880301	1.5	n/a	n/a	22	outcome	n/a	n/a	0
338.7880301	2.5668326999999698	12.516948999999965	n/a	22	ITI_onset	n/a	n/a	n/a
341.35486280000003	4.427869100000011	9.950116299999994	4.427869100000011	23	stim1	n/a	n/a	n/a
345.78273190000004	0.005546399999991991	5.522247199999984	n/a	23	choice1	1	n/a	n/a
351.3049791	0.5896062000000384	3.1000447000000277	0.5896062000000384	23	stim2	n/a	1	n/a
351.8945853	0.01043849999998929	2.510438499999989	n/a	23	choice2	n/a	1	n/a
354.40502380000004	1.5	n/a	n/a	23	outcome	n/a	n/a	0
355.90502380000004	2.5667735000000103	10.150195200000017	n/a	23	ITI_onset	n/a	n/a	n/a
358.47179730000005	0.5587797999999602	7.583421700000006	0.5587797999999602	24	stim1	n/a	n/a	n/a
359.0305771	0.00790549999999348	7.024641900000046	n/a	24	choice1	0	n/a	n/a
366.055219	0.9338759999999893	4.450026399999973	0.9338759999999893	24	stim2	n/a	0	n/a
366.989095	0.016150399999984074	3.516150399999984	n/a	24	choice2	n/a	0	n/a
370.50524540000004	1.5	n/a	n/a	24	outcome	n/a	n/a	1
372.00524540000004	2.5667959000000264	8.050218899999978	n/a	24	ITI_onset	n/a	n/a	n/a
374.5720413	0.4482759999999544	5.483422999999951	0.4482759999999544	25	stim1	n/a	n/a	n/a
375.0203173	0.018338099999993574	5.035146999999998	n/a	25	choice1	1	n/a	n/a
380.0554643	0.5806101999999955	5.100065500000026	0.5806101999999955	25	stim2	n/a	1	n/a
380.6360745	0.019455300000030547	4.519455300000031	n/a	25	choice2	n/a	1	n/a
385.1555298	1.5	n/a	n/a	25	outcome	n/a	n/a	0
386.6555298	1.0	1.0	n/a	25	ITI_onset	n/a	n/a	n/a
