onset	duration	duration2fb	response_time	trial	event	choice1	state	reward
0.0	0.3391145030000007	3.3833784220000016	0.3391145030000007	1	stim1	n/a	n/a	n/a
0.33911450299999757	0.0278099919999986	3.044263919000001	n/a	1	choice1	1	n/a	n/a
3.383378422	1.238044597	4.750065684000001	1.238044597	1	stim2	n/a	1	n/a
4.621423019000002	0.012021087000000989	3.512021087000001	n/a	1	choice2	n/a	1	n/a
8.133444106000002	1.5	n/a	n/a	1	outcome	n/a	n/a	0
9.633444106000002	5.566782764999997	11.950247161	n/a	1	ITI_onset	n/a	n/a	n/a
15.200226870999995	0.3615680659999998	6.383464396000003	0.3615680659999998	2	stim1	n/a	n/a	n/a
15.561794936999998	0.005077011000001221	6.021896330000003	n/a	2	choice1	0	n/a	n/a
21.583691267000003	0.38547101300000214	8.399995638	0.38547101300000214	2	stim2	n/a	0	n/a
21.969162280000003	0.014524624999998195	8.014524624999998	n/a	2	choice2	n/a	0	n/a
29.983686905000003	1.5	n/a	n/a	2	outcome	n/a	n/a	0
31.483686905000003	3.5669218319999927	7.866957537000002	n/a	2	ITI_onset	n/a	n/a	n/a
35.05060873699999	0.2755267650000096	4.30003570500001	0.2755267650000096	3	stim1	n/a	n/a	n/a
35.326135502	0.007774953000000096	4.02450894	n/a	3	choice1	1	n/a	n/a
39.350644442000004	0.3371483090000038	4.849991610999997	0.3371483090000038	3	stim2	n/a	1	n/a
39.687792751	0.012843301999993855	4.512843301999994	n/a	3	choice2	n/a	1	n/a
44.20063605300001	1.5	n/a	n/a	3	outcome	n/a	n/a	0
45.70063605300001	4.0668040980000075	9.850268624000003	n/a	3	ITI_onset	n/a	n/a	n/a
49.76744015100002	0.25777583599998616	5.783464525999996	0.25777583599998616	4	stim1	n/a	n/a	n/a
50.025215986999996	0.008888778000007733	5.52568869000001	n/a	4	choice1	0	n/a	n/a
55.550904677000005	0.22540275799999654	6.733295125999997	0.22540275799999654	4	stim2	n/a	0	n/a
55.77630743500001	0.007892368000000715	6.507892368000001	n/a	4	choice2	n/a	0	n/a
62.28419980300001	1.5	n/a	n/a	4	outcome	n/a	n/a	1
63.78419980300001	4.066848689000006	7.366961387000003	n/a	4	ITI_onset	n/a	n/a	n/a
67.851048492	0.2636949509999977	3.3001126979999973	0.2636949509999977	5	stim1	n/a	n/a	n/a
68.11474344300001	0.019775187999999617	3.0364177469999993	n/a	5	choice1	0	n/a	n/a
71.15116119000001	0.46762676199999986	3.4833370709999874	0.46762676199999986	5	stim2	n/a	0	n/a
71.618787952	0.015710308999987318	3.0157103089999873	n/a	5	choice2	n/a	0	n/a
74.63449826099999	1.5	n/a	n/a	5	outcome	n/a	n/a	1
76.13449826099999	4.56682879900001	7.100190428000016	n/a	5	ITI_onset	n/a	n/a	n/a
80.70132706000001	0.5127257289999979	2.5333616290000065	0.5127257289999979	6	stim1	n/a	n/a	n/a
81.21405278900001	0.0039355969999887745	2.0206359000000083	n/a	6	choice1	0	n/a	n/a
83.23468868900001	0.3373898729999928	3.3500057259999885	0.3373898729999928	6	stim2	n/a	0	n/a
83.572078562	0.012615852999995696	3.012615852999996	n/a	6	choice2	n/a	0	n/a
86.584694415	1.5	n/a	n/a	6	outcome	n/a	n/a	0
88.084694415	3.0667972009999938	5.400233832000013	n/a	6	ITI_onset	n/a	n/a	n/a
91.15149161599999	0.30857480900001244	2.3334366310000187	0.30857480900001244	7	stim1	n/a	n/a	n/a
91.46006642500001	0.008120456999997258	2.0248618220000063	n/a	7	choice1	0	n/a	n/a
93.48492824700001	0.28840760099999896	2.2998961569999956	0.28840760099999896	7	stim2	n/a	0	n/a
93.77333584800002	0.011488555999996606	2.0114885559999967	n/a	7	choice2	n/a	0	n/a
95.784824404	1.5	n/a	n/a	7	outcome	n/a	n/a	0
97.284824404	2.5668040979999933	7.666884330999994	n/a	7	ITI_onset	n/a	n/a	n/a
99.851628502	0.5721398349999945	5.100080233000001	0.5721398349999945	8	stim1	n/a	n/a	n/a
100.423768337	0.01121940299999551	4.527940398000006	n/a	8	choice1	0	n/a	n/a
104.951708735	0.29930780599999707	6.316670564000015	0.29930780599999707	8	stim2	n/a	0	n/a
105.251016541	0.017362758000017492	6.017362758000018	n/a	8	choice2	n/a	0	n/a
111.268379299	1.5	n/a	n/a	8	outcome	n/a	n/a	0
112.768379299	6.066875476999994	9.45027795899997	n/a	8	ITI_onset	n/a	n/a	n/a
118.835254776	0.35752115099999354	3.3834024819999757	0.35752115099999354	9	stim1	n/a	n/a	n/a
119.19277592700001	0.009155043000006116	3.025881330999982	n/a	9	choice1	0	n/a	n/a
122.21865725799998	0.7211340090000012	3.7333203090000024	0.7211340090000012	9	stim2	n/a	0	n/a
122.93979126699998	0.012186300000001211	3.012186300000001	n/a	9	choice2	n/a	0	n/a
125.951977567	1.5	n/a	n/a	9	outcome	n/a	n/a	0
127.451977567	4.066851416000019	6.433558407000033	n/a	9	ITI_onset	n/a	n/a	n/a
131.51882898300002	0.33134756999998355	2.366706991000014	0.33134756999998355	10	stim1	n/a	n/a	n/a
131.85017655299998	0.018597846000018764	2.03535942100003	n/a	10	choice1	0	n/a	n/a
133.88553597400002	0.26376039499999027	5.283297227999982	0.26376039499999027	10	stim2	n/a	0	n/a
134.149296369	0.01953683299999102	5.019536832999991	n/a	10	choice2	n/a	0	n/a
139.168833202	1.5	n/a	n/a	10	outcome	n/a	n/a	0
140.668833202	3.566845801999996	6.500255036999995	n/a	10	ITI_onset	n/a	n/a	n/a
144.235679004	0.3977445710000175	2.933409234999999	0.3977445710000175	11	stim1	n/a	n/a	n/a
144.63342357500002	0.018917363999964437	2.535664663999982	n/a	11	choice1	1	n/a	n/a
147.169088239	0.09457270600000629	4.599928493000014	0.09457270600000629	11	stim2	n/a	1	n/a
147.263660945	0.005355787000007694	4.505355787000008	n/a	11	choice2	n/a	1	n/a
151.769016732	1.5	n/a	n/a	11	outcome	n/a	n/a	1
153.269016732	3.0668919979999774	5.400251316999987	n/a	11	ITI_onset	n/a	n/a	n/a
156.33590873	0.2988185830000148	2.33335931900001	0.2988185830000148	12	stim1	n/a	n/a	n/a
156.634727313	0.01783562100000563	2.0345407359999954	n/a	12	choice1	1	n/a	n/a
158.669268049	0.464428688999993	5.9832780429999985	0.464428688999993	12	stim2	n/a	1	n/a
159.133696738	0.018849354000005404	5.518849354000006	n/a	12	choice2	n/a	1	n/a
164.652546092	1.5	n/a	n/a	12	outcome	n/a	n/a	1
166.152546092	5.06693241899999	7.566948619000002	n/a	12	ITI_onset	n/a	n/a	n/a
171.21947851099998	0.47164865499999725	2.5000162000000126	0.47164865499999725	13	stim1	n/a	n/a	n/a
171.69112716599997	0.01166756300002453	2.0283675450000156	n/a	13	choice1	1	n/a	n/a
173.719494711	0.475623711000022	3.4833778120000205	0.475623711000022	13	stim2	n/a	1	n/a
174.19511842200004	0.007754100999998627	3.007754100999999	n/a	13	choice2	n/a	1	n/a
177.20287252300002	1.5	n/a	n/a	13	outcome	n/a	n/a	1
178.70287252300002	3.5667562990000006	8.350182969999965	n/a	13	ITI_onset	n/a	n/a	n/a
182.26962882200002	0.2601308419999841	4.783426670999964	0.2601308419999841	14	stim1	n/a	n/a	n/a
182.529759664	0.006591837000014493	4.523295828999981	n/a	14	choice1	1	n/a	n/a
187.053055493	0.2815953730000183	6.2999692990000185	0.2815953730000183	14	stim2	n/a	1	n/a
187.334650866	0.01837392600000021	6.018373926000001	n/a	14	choice2	n/a	1	n/a
193.353024792	1.5	n/a	n/a	14	outcome	n/a	n/a	0
194.853024792	3.0668985739999917	5.4336023580000035	n/a	14	ITI_onset	n/a	n/a	n/a
197.919923366	0.3338296139999875	2.3667037840000122	0.3338296139999875	15	stim1	n/a	n/a	n/a
198.25375297999997	0.01613665400003083	2.032874170000025	n/a	15	choice1	1	n/a	n/a
200.28662715000002	0.924615094000008	5.43329182199997	0.924615094000008	15	stim2	n/a	1	n/a
201.211242244	0.008676727999962167	4.508676727999962	n/a	15	choice2	n/a	1	n/a
205.719918972	1.5	n/a	n/a	15	outcome	n/a	n/a	0
207.219918972	7.566903707000019	11.466970402000007	n/a	15	ITI_onset	n/a	n/a	n/a
214.786822679	0.36582286100002237	3.9000666949999867	0.36582286100002237	16	stim1	n/a	n/a	n/a
215.15264554	0.017521234999992884	3.5342438339999642	n/a	16	choice1	1	n/a	n/a
218.68688937399997	0.4192469559999881	2.9333121920000123	0.4192469559999881	16	stim2	n/a	0	n/a
219.10613632999997	0.014065236000024016	2.514065236000024	n/a	16	choice2	n/a	0	n/a
221.620201566	1.5	n/a	n/a	16	outcome	n/a	n/a	0
223.120201566	2.566839546000003	9.083608340000007	n/a	16	ITI_onset	n/a	n/a	n/a
225.687041112	0.4819348459999892	6.516768794000003	0.4819348459999892	17	stim1	n/a	n/a	n/a
226.16897595799998	0.018042859000037423	6.034833948000014	n/a	17	choice1	1	n/a	n/a
232.203809906	0.31429695200000424	3.833271418999997	0.31429695200000424	17	stim2	n/a	1	n/a
232.518106858	0.01897446699999273	3.518974466999993	n/a	17	choice2	n/a	1	n/a
236.03708132499997	1.5	n/a	n/a	17	outcome	n/a	n/a	0
237.53708132499997	3.066840028000006	5.583540171000001	n/a	17	ITI_onset	n/a	n/a	n/a
240.60392135300003	0.4877172999999602	2.5167001429999947	0.4877172999999602	18	stim1	n/a	n/a	n/a
241.09163865299996	0.012256555000029038	2.0289828430000343	n/a	18	choice1	0	n/a	n/a
243.120621496	0.508672396000009	6.016635661000037	0.508672396000009	18	stim2	n/a	0	n/a
243.62929389200002	0.007963265000027604	5.507963265000027	n/a	18	choice2	n/a	0	n/a
249.13725715700002	1.5	n/a	n/a	18	outcome	n/a	n/a	1
250.63725715700002	3.5668838169999653	7.68363195099996	n/a	18	ITI_onset	n/a	n/a	n/a
254.20414097399998	0.5911319459999795	4.116748133999994	0.5911319459999795	19	stim1	n/a	n/a	n/a
254.79527292	0.008841620000021066	3.5256161880000145	n/a	19	choice1	0	n/a	n/a
258.320889108	0.4003982439999818	6.4166199100000085	0.4003982439999818	19	stim2	n/a	0	n/a
258.721287352	0.016221666000026745	6.0162216660000265	n/a	19	choice2	n/a	0	n/a
264.737509018	1.5	n/a	n/a	19	outcome	n/a	n/a	1
266.237509018	6.5669359479999985	9.633643164000008	n/a	19	ITI_onset	n/a	n/a	n/a
272.804444966	0.5396589689999819	3.06670721600001	0.5396589689999819	20	stim1	n/a	n/a	n/a
273.34410393499996	0.010312175000028219	2.5270482470000277	n/a	20	choice1	0	n/a	n/a
275.871152182	0.5148882539999904	3.5333734979999716	0.5148882539999904	20	stim2	n/a	0	n/a
276.38604043600003	0.018485243999981322	3.018485243999981	n/a	20	choice2	n/a	0	n/a
279.40452568	1.5	n/a	n/a	20	outcome	n/a	n/a	1
280.90452568	6.566827837000019	9.40020560200006	n/a	20	ITI_onset	n/a	n/a	n/a
287.471353517	0.3002878550000023	2.833377765000041	0.3002878550000023	21	stim1	n/a	n/a	n/a
287.77164137200003	0.01634389299998293	2.533089910000039	n/a	21	choice1	0	n/a	n/a
290.30473128200003	1.369394027000002	3.883312656999973	1.369394027000002	21	stim2	n/a	0	n/a
291.67412530900003	0.013918629999971018	2.513918629999971	n/a	21	choice2	n/a	0	n/a
294.188043939	1.5	n/a	n/a	21	outcome	n/a	n/a	1
295.688043939	4.066843877999985	6.500643368999998	n/a	21	ITI_onset	n/a	n/a	n/a
299.754887817	0.39476945399999386	2.4337994910000127	0.39476945399999386	22	stim1	n/a	n/a	n/a
300.149657271	0.02186264599999413	2.0390300370000185	n/a	22	choice1	0	n/a	n/a
302.188687308	0.47597370500001124	7.982914252999995	0.47597370500001124	22	stim2	n/a	0	n/a
302.664661013	0.006940547999984119	7.506940547999984	n/a	22	choice2	n/a	0	n/a
310.171601561	1.5	n/a	n/a	22	outcome	n/a	n/a	0
311.671601561	6.06692472000001	11.083664480999985	n/a	22	ITI_onset	n/a	n/a	n/a
317.738526281	0.49209399899997514	5.016739760999975	0.49209399899997514	23	stim1	n/a	n/a	n/a
318.23062028	0.007886591999966186	4.5246457620000005	n/a	23	choice1	0	n/a	n/a
322.755266042	0.5958871920000529	3.1166305600000195	0.5958871920000529	23	stim2	n/a	0	n/a
323.35115323400004	0.020743367999966723	2.520743367999967	n/a	23	choice2	n/a	0	n/a
325.871896602	1.5	n/a	n/a	23	outcome	n/a	n/a	1
327.371896602	7.11688094699994	12.467000878999999	n/a	23	ITI_onset	n/a	n/a	n/a
334.48877754899996	0.31240774900006363	5.35011993200006	0.31240774900006363	24	stim1	n/a	n/a	n/a
334.801185298	0.02089959899993846	5.037712182999996	n/a	24	choice1	0	n/a	n/a
339.838897481	0.3211659610000206	2.3332746260000277	0.3211659610000206	24	stim2	n/a	0	n/a
340.160063442	0.012108665000007022	2.012108665000007	n/a	24	choice2	n/a	0	n/a
342.17217210700005	1.5	n/a	n/a	24	outcome	n/a	n/a	1
343.67217210700005	5.566832969999989	9.350248091999966	n/a	24	ITI_onset	n/a	n/a	n/a
349.23900507700006	0.7508989669999573	3.7834151219999765	0.7508989669999573	25	stim1	n/a	n/a	n/a
349.989904044	0.0157433510000119	3.0325161550000193	n/a	25	choice1	0	n/a	n/a
353.022420199	0.4532169850000064	2.4666704519999914	0.4532169850000064	25	stim2	n/a	1	n/a
353.475637184	0.013453466999984813	2.0134534669999846	n/a	25	choice2	n/a	1	n/a
355.489090651	1.5	n/a	n/a	25	outcome	n/a	n/a	1
356.989090651	1.0	1.0	n/a	25	ITI_onset	n/a	n/a	n/a
