onset	duration	duration2fb	response_time	trial	event	choice1	state	reward
0.0	0.3988827999999994	6.433459300000003	0.3988827999999994	1	stim1	n/a	n/a	n/a
0.3988827999999991	0.018110599999999977	6.034576500000003	n/a	1	choice1	1	n/a	n/a
6.433459300000003	0.30992119999999707	3.3166053999999967	0.30992119999999707	1	stim2	n/a	1	n/a
6.743380500000001	0.006684199999999692	3.0066841999999996	n/a	1	choice2	n/a	1	n/a
9.7500647	1.5	n/a	n/a	1	outcome	n/a	n/a	0
11.2500647	5.0668774000000045	7.450234799999999	n/a	1	ITI_onset	n/a	n/a	n/a
16.316942100000006	0.3499335999999967	2.3833573999999933	0.3499335999999967	2	stim1	n/a	n/a	n/a
16.6668757	0.016726900000001477	2.033423799999997	n/a	2	choice1	1	n/a	n/a
18.7002995	1.069551400000004	5.083301900000006	1.069551400000004	2	stim2	n/a	1	n/a
19.7698509	0.013750500000001921	4.013750500000002	n/a	2	choice2	n/a	1	n/a
23.783601400000002	1.5	n/a	n/a	2	outcome	n/a	n/a	0
25.283601400000002	3.066839899999999	11.967020799999998	n/a	2	ITI_onset	n/a	n/a	n/a
28.3504413	0.8723571999999986	8.900180899999999	0.8723571999999986	3	stim1	n/a	n/a	n/a
29.222798500000003	0.011006999999997788	8.0278237	n/a	3	choice1	0	n/a	n/a
37.2506222	0.2752253009999986	5.783313199999997	0.2752253009999986	3	stim2	n/a	0	n/a
37.525847501	0.008087898999998287	5.508087898999999	n/a	3	choice2	n/a	0	n/a
43.0339354	1.5	n/a	n/a	3	outcome	n/a	n/a	1
44.5339354	6.083573301000004	9.4002471	n/a	3	ITI_onset	n/a	n/a	n/a
50.617508701	0.27980179899999347	3.3166737989999966	0.27980179899999347	4	stim1	n/a	n/a	n/a
50.897310499999996	0.020143600000010337	3.036872000000003	n/a	4	choice1	0	n/a	n/a
53.9341825	0.626736499999999	6.633400800000003	0.626736499999999	4	stim2	n/a	0	n/a
54.56091899999999	0.006664300000004004	6.006664300000004	n/a	4	choice2	n/a	0	n/a
60.5675833	1.5	n/a	n/a	4	outcome	n/a	n/a	0
62.0675833	3.0668392999999923	6.966839599999992	n/a	4	ITI_onset	n/a	n/a	n/a
65.1344226	1.3759913000000088	3.9000003	1.3759913000000088	5	stim1	n/a	n/a	n/a
66.5104139	0.007370299999995041	2.524008999999991	n/a	5	choice1	1	n/a	n/a
69.03442289999998	0.35142140000000655	4.366715200000006	0.35142140000000655	5	stim2	n/a	1	n/a
69.3858443	0.015293799999999464	4.015293799999999	n/a	5	choice2	n/a	1	n/a
73.4011381	1.5	n/a	n/a	5	outcome	n/a	n/a	0
74.9011381	2.566881999999998	9.433638600000005	n/a	5	ITI_onset	n/a	n/a	n/a
77.46802009999999	0.31874650000000837	6.8667566000000075	0.31874650000000837	6	stim1	n/a	n/a	n/a
77.78676659999999	0.031161799999987125	6.5480101	n/a	6	choice1	1	n/a	n/a
84.33477669999999	0.29495359999999343	8.299930099999997	0.29495359999999343	6	stim2	n/a	1	n/a
84.6297303	0.004976500000004307	8.004976500000005	n/a	6	choice2	n/a	1	n/a
92.6347068	1.5	n/a	n/a	6	outcome	n/a	n/a	0
94.1347068	6.566975200000001	11.367179999999992	n/a	6	ITI_onset	n/a	n/a	n/a
100.701682	0.26316899999999444	4.800204799999992	0.26316899999999444	7	stim1	n/a	n/a	n/a
100.96485100000001	0.020172300000005635	4.537035799999998	n/a	7	choice1	0	n/a	n/a
105.5018868	0.32007800000000863	6.833237401000006	0.32007800000000863	7	stim2	n/a	0	n/a
105.82196480000002	0.01315940099999716	6.513159400999998	n/a	7	choice2	n/a	0	n/a
112.33512420100001	1.5	n/a	n/a	7	outcome	n/a	n/a	0
113.83512420100001	5.56683600000001	8.20023689900001	n/a	7	ITI_onset	n/a	n/a	n/a
119.40196020100001	0.6038495989999793	2.633400899	0.6038495989999793	8	stim1	n/a	n/a	n/a
120.00580980000001	0.012830900000000839	2.029551300000021	n/a	8	choice1	0	n/a	n/a
122.03536110000002	0.603601399999985	5.616693	0.603601399999985	8	stim2	n/a	0	n/a
122.63896249999999	0.013091600000014296	5.013091600000014	n/a	8	choice2	n/a	0	n/a
127.65205410000002	1.5	n/a	n/a	8	outcome	n/a	n/a	1
129.15205410000002	3.5668407000000006	6.500206099999981	n/a	8	ITI_onset	n/a	n/a	n/a
132.71889480000002	0.4028842000000004	2.9333653999999805	0.4028842000000004	9	stim1	n/a	n/a	n/a
133.12177900000003	0.01370340099997702	2.53048119999998	n/a	9	choice1	0	n/a	n/a
135.6522602	0.4172271999999939	4.4333493000000015	0.4172271999999939	9	stim2	n/a	0	n/a
136.06948739999999	0.016122100000007775	4.016122100000008	n/a	9	choice2	n/a	0	n/a
140.0856095	1.5	n/a	n/a	9	outcome	n/a	n/a	1
141.5856095	3.6335077999999923	7.966881900000008	n/a	9	ITI_onset	n/a	n/a	n/a
145.2191173	0.7966028000000224	4.333374100000015	0.7966028000000224	10	stim1	n/a	n/a	n/a
146.0157201	0.020126701000001048	3.536771299999993	n/a	10	choice1	0	n/a	n/a
149.5524914	0.46944269999998506	3.983288499999995	0.46944269999998506	10	stim2	n/a	0	n/a
150.02193409999998	0.013845800000010058	3.51384580000001	n/a	10	choice2	n/a	0	n/a
153.5357799	1.5	n/a	n/a	10	outcome	n/a	n/a	1
155.0357799	2.566822500000009	4.9835510000000065	n/a	10	ITI_onset	n/a	n/a	n/a
157.60260240000002	0.38383710000000426	2.4167284999999974	0.38383710000000426	11	stim1	n/a	n/a	n/a
157.98643950000002	0.016204499999992548	2.0328913999999934	n/a	11	choice1	0	n/a	n/a
160.0193309	0.8466062999999849	2.8666600000000035	0.8466062999999849	11	stim2	n/a	0	n/a
160.8659372	0.02005370000001858	2.0200537000000187	n/a	11	choice2	n/a	0	n/a
162.88599090000002	1.5	n/a	n/a	11	outcome	n/a	n/a	1
164.38599090000002	3.0667964999999966	6.583492999999987	n/a	11	ITI_onset	n/a	n/a	n/a
167.4527874	0.4840792000000074	3.516696499999991	0.4840792000000074	12	stim1	n/a	n/a	n/a
167.93686660000003	0.01593309999999474	3.0326172999999836	n/a	12	choice1	0	n/a	n/a
170.9694839	0.47219150000001536	4.983350600000005	0.47219150000001536	12	stim2	n/a	1	n/a
171.4416754	0.011159099999989848	4.51115909999999	n/a	12	choice2	n/a	1	n/a
175.9528345	1.5	n/a	n/a	12	outcome	n/a	n/a	0
177.4528345	8.566951100000006	14.433720299999987	n/a	12	ITI_onset	n/a	n/a	n/a
186.0197856	0.3452020009999978	5.866769199999981	0.3452020009999978	13	stim1	n/a	n/a	n/a
186.36498760100002	0.004769498999987264	5.521567198999983	n/a	13	choice1	0	n/a	n/a
191.8865548	0.302183400000009	2.8165835010000153	0.302183400000009	13	stim2	n/a	0	n/a
192.18873820000002	0.014400101000006544	2.5144001010000063	n/a	13	choice2	n/a	0	n/a
194.70313830100002	1.5	n/a	n/a	13	outcome	n/a	n/a	0
196.20313830100002	2.5668650989999877	5.083551598999999	n/a	13	ITI_onset	n/a	n/a	n/a
198.7700034	0.4825132000000158	2.5166865000000107	0.4825132000000158	14	stim1	n/a	n/a	n/a
199.2525166	0.017466899999999442	2.034173299999995	n/a	14	choice1	1	n/a	n/a
201.2866899	0.34624020000000016	2.3666068000000084	0.34624020000000016	14	stim2	n/a	1	n/a
201.6329301	0.020366600000008474	2.0203666000000085	n/a	14	choice2	n/a	1	n/a
203.65329670000003	1.5	n/a	n/a	14	outcome	n/a	n/a	1
205.15329670000003	4.066902699999977	11.400305299999978	n/a	14	ITI_onset	n/a	n/a	n/a
209.22019939999998	0.30788000000000465	7.333402600000001	0.30788000000000465	15	stim1	n/a	n/a	n/a
209.5280794	0.008758900000015274	7.025522599999997	n/a	15	choice1	1	n/a	n/a
216.55360199999998	0.9721906000000017	7.9833368000000196	0.9721906000000017	15	stim2	n/a	1	n/a
217.5257926	0.011146200000017415	7.0111462000000175	n/a	15	choice2	n/a	1	n/a
224.5369388	1.5	n/a	n/a	15	outcome	n/a	n/a	0
226.0369388	3.56689479999998	5.90025079999998	n/a	15	ITI_onset	n/a	n/a	n/a
229.6038336	0.31006750000000466	2.3333559999999998	0.31006750000000466	16	stim1	n/a	n/a	n/a
229.9139011	0.006582200000004377	2.023288499999995	n/a	16	choice1	1	n/a	n/a
231.93718959999998	0.6087311000000045	4.1166911000000255	0.6087311000000045	16	stim2	n/a	0	n/a
232.5459207	0.007960000000020956	3.507960000000021	n/a	16	choice2	n/a	0	n/a
236.0538807	1.5	n/a	n/a	16	outcome	n/a	n/a	0
237.5538807	3.0667695999999998	8.400239900000015	n/a	16	ITI_onset	n/a	n/a	n/a
240.62065030000002	0.3062026999999944	5.333470300000015	0.3062026999999944	17	stim1	n/a	n/a	n/a
240.926853	0.010488400000002002	5.027267600000021	n/a	17	choice1	0	n/a	n/a
245.9541206	0.4737523999999976	3.9832365999999455	0.4737523999999976	17	stim2	n/a	0	n/a
246.42787300000003	0.009484199999948033	3.509484199999948	n/a	17	choice2	n/a	0	n/a
249.9373572	1.5	n/a	n/a	17	outcome	n/a	n/a	0
251.4373572	6.0668992000000435	12.38373390000005	n/a	17	ITI_onset	n/a	n/a	n/a
257.50425640000003	0.281655999999959	6.3168347000000065	0.281655999999959	18	stim1	n/a	n/a	n/a
257.7859124	0.018397200000006705	6.035178700000047	n/a	18	choice1	0	n/a	n/a
263.82109110000005	0.3749314000000013	2.3833093999999693	0.3749314000000013	18	stim2	n/a	1	n/a
264.1960225	0.00837799999996787	2.008377999999968	n/a	18	choice2	n/a	1	n/a
266.2044005	1.5	n/a	n/a	18	outcome	n/a	n/a	1
267.7044005	4.566823199999984	7.633459499999997	n/a	18	ITI_onset	n/a	n/a	n/a
272.2712237	0.5419164000000456	3.0666363000000127	0.5419164000000456	19	stim1	n/a	n/a	n/a
272.81314010000006	0.008072999999974854	2.524719899999967	n/a	19	choice1	0	n/a	n/a
275.33786	0.38922930000000633	6.9000273000000165	0.38922930000000633	19	stim2	n/a	0	n/a
275.7270893	0.010798000000009779	6.51079800000001	n/a	19	choice2	n/a	0	n/a
282.2378873	1.5	n/a	n/a	19	outcome	n/a	n/a	0
283.7378873	3.566898600000015	6.466964700000012	n/a	19	ITI_onset	n/a	n/a	n/a
287.3047859	0.36811389999999666	2.9000660999999965	0.36811389999999666	20	stim1	n/a	n/a	n/a
287.67289980000004	0.015214600000006613	2.5319521999999997	n/a	20	choice1	1	n/a	n/a
290.204852	0.41710939999995755	5.433329999999958	0.41710939999995755	20	stim2	n/a	1	n/a
290.6219614	0.01622060000000056	5.0162206000000005	n/a	20	choice2	n/a	1	n/a
295.638182	1.5	n/a	n/a	20	outcome	n/a	n/a	1
297.138182	3.566824600000051	9.066918700000038	n/a	20	ITI_onset	n/a	n/a	n/a
300.70500660000005	0.47082989999995334	5.500094099999988	0.47082989999995334	21	stim1	n/a	n/a	n/a
301.1758365	0.012590300000039861	5.029264200000034	n/a	21	choice1	1	n/a	n/a
306.2051007	0.6058219999999855	4.116672099999967	0.6058219999999855	21	stim2	n/a	1	n/a
306.8109227	0.010850099999981466	3.5108500999999817	n/a	21	choice2	n/a	1	n/a
310.32177279999996	1.5	n/a	n/a	21	outcome	n/a	n/a	1
311.82177279999996	3.566812300000049	11.05063030000002	n/a	21	ITI_onset	n/a	n/a	n/a
315.38858510000006	0.4463706009999732	7.48381799999997	0.4463706009999732	22	stim1	n/a	n/a	n/a
315.834955701	0.020305099999997765	7.037447398999997	n/a	22	choice1	1	n/a	n/a
322.8724031	0.36214319999999134	2.382980099999986	0.36214319999999134	22	stim2	n/a	0	n/a
323.2345463	0.020836899999994784	2.0208368999999946	n/a	22	choice2	n/a	0	n/a
325.2553832	1.5	n/a	n/a	22	outcome	n/a	n/a	1
326.7553832	2.1000940000000408	6.516805500000017	n/a	22	ITI_onset	n/a	n/a	n/a
328.85547720000005	0.8920956000000005	4.416711499999976	0.8920956000000005	23	stim1	n/a	n/a	n/a
329.74757280000006	0.007856999999959953	3.5246158999999753	n/a	23	choice1	1	n/a	n/a
333.2721887	0.4853785999999964	3.000037301000033	0.4853785999999964	23	stim2	n/a	0	n/a
333.7575673	0.014658701000036672	2.5146587010000365	n/a	23	choice2	n/a	0	n/a
336.27222600100004	1.5	n/a	n/a	23	outcome	n/a	n/a	1
337.77222600100004	6.5669145989999524	14.966975898999953	n/a	23	ITI_onset	n/a	n/a	n/a
344.3391406	0.3764122000000207	8.4000613	0.3764122000000207	24	stim1	n/a	n/a	n/a
344.7155528	0.006832099999999628	8.02364909999998	n/a	24	choice1	1	n/a	n/a
352.7392019	0.34085210000001825	2.8500157999999938	0.34085210000001825	24	stim2	n/a	1	n/a
353.080054	0.009163699999975506	2.5091636999999753	n/a	24	choice2	n/a	1	n/a
355.5892177	1.5	n/a	n/a	24	outcome	n/a	n/a	1
357.0892177	3.5667906000000076	7.600217999999994	n/a	24	ITI_onset	n/a	n/a	n/a
360.6560083	1.0110081000000355	4.033427399999986	1.0110081000000355	25	stim1	n/a	n/a	n/a
361.6670164	0.005624299999966752	3.0224192999999504	n/a	25	choice1	1	n/a	n/a
364.6894357	0.6681693000000086	5.183302200000035	0.6681693000000086	25	stim2	n/a	1	n/a
365.357605	0.015132900000025984	4.515132900000026	n/a	25	choice2	n/a	1	n/a
369.8727379	1.5	n/a	n/a	25	outcome	n/a	n/a	1
371.3727379	1.0	1.0	n/a	25	ITI_onset	n/a	n/a	n/a
