onset	duration	duration2fb	response_time	trial	event	choice1	state	reward
0.0	0.6942773000000015	4.733379799999999	0.6942773000000015	1	stim1	n/a	n/a	n/a
0.6942773000000031	0.02273279999999795	4.039102499999998	n/a	1	choice1	0	n/a	n/a
4.733379799999998	0.2221199000000015	2.2333722000000016	0.2221199000000015	1	stim2	n/a	1	n/a
4.955499700000001	0.011252300000000106	2.0112523	n/a	1	choice2	n/a	1	n/a
6.966752	1.5	n/a	n/a	1	outcome	n/a	n/a	1
8.466752	5.066783600000003	8.083499199999999	n/a	1	ITI_onset	n/a	n/a	n/a
13.533535600000004	0.48610529999999563	3.016715599999996	0.48610529999999563	2	stim1	n/a	n/a	n/a
14.019640900000002	0.014058900000003632	2.5306103	n/a	2	choice1	0	n/a	n/a
16.5502512	1.7611231000000043	5.266671500000004	1.7611231000000043	2	stim2	n/a	0	n/a
18.3113743	0.005548399999999674	3.5055483999999995	n/a	2	choice2	n/a	0	n/a
21.816922700000003	1.5	n/a	n/a	2	outcome	n/a	n/a	1
23.316922700000003	2.066816200000001	7.183540699999997	n/a	2	ITI_onset	n/a	n/a	n/a
25.3837389	1.0895633999999992	5.116724499999997	1.0895633999999992	3	stim1	n/a	n/a	n/a
26.473302300000004	0.010428499999994529	4.027161099999997	n/a	3	choice1	1	n/a	n/a
30.500463399999997	0.5889365000000034	2.599998099999997	0.5889365000000034	3	stim2	n/a	0	n/a
31.089399900000007	0.011061599999993631	2.0110615999999935	n/a	3	choice2	n/a	0	n/a
33.100461499999994	1.5	n/a	n/a	3	outcome	n/a	n/a	1
34.600461499999994	2.566750700000004	7.7168351000000035	n/a	3	ITI_onset	n/a	n/a	n/a
37.16721220000001	3.1162494000000005	5.1500844	3.1162494000000005	4	stim1	n/a	n/a	n/a
40.28346160000001	0.01707589999999618	2.033834999999999	n/a	4	choice1	1	n/a	n/a
42.317296600000006	0.5326435999999958	7.049968200000003	0.5326435999999958	4	stim2	n/a	0	n/a
42.84994019999999	0.01732459999999992	6.517324600000007	n/a	4	choice2	n/a	0	n/a
49.367264800000015	1.5	n/a	n/a	4	outcome	n/a	n/a	1
50.867264800000015	5.566873599999992	11.450309099999998	n/a	4	ITI_onset	n/a	n/a	n/a
56.434138399999995	0.3492814999999973	5.883435500000007	0.3492814999999973	5	stim1	n/a	n/a	n/a
56.7834199	0.017391000000003258	5.53415400000001	n/a	5	choice1	0	n/a	n/a
62.31757390000001	0.2573450999999914	5.266661200000002	0.2573450999999914	5	stim2	n/a	1	n/a
62.574918999999994	0.009316100000010919	5.009316100000011	n/a	5	choice2	n/a	1	n/a
67.58423510000001	1.5	n/a	n/a	5	outcome	n/a	n/a	0
69.08423510000001	3.0668030999999902	5.95018849999999	n/a	5	ITI_onset	n/a	n/a	n/a
72.1510382	0.35326740000001156	2.883385399999999	0.35326740000001156	6	stim1	n/a	n/a	n/a
72.50430560000001	0.013419899999993504	2.530117999999988	n/a	6	choice1	1	n/a	n/a
75.0344236	0.31547609999999987	2.8333359000000056	0.31547609999999987	6	stim2	n/a	0	n/a
75.3498997	0.017859800000005633	2.5178598000000054	n/a	6	choice2	n/a	0	n/a
77.8677595	1.5	n/a	n/a	6	outcome	n/a	n/a	1
79.3677595	2.066740300000005	13.850252900000006	n/a	6	ITI_onset	n/a	n/a	n/a
81.43449980000001	6.760829400000002	11.783512600000002	6.760829400000002	7	stim1	n/a	n/a	n/a
88.19532920000002	0.0059472999999998135	5.0226831999999995	n/a	7	choice1	0	n/a	n/a
93.2180124	0.6493691999999864	2.666674399999989	0.6493691999999864	7	stim2	n/a	1	n/a
93.8673816	0.017305200000002515	2.0173052000000027	n/a	7	choice2	n/a	1	n/a
95.8846868	1.5	n/a	n/a	7	outcome	n/a	n/a	0
97.3846868	4.06682190000001	13.28357800000001	n/a	7	ITI_onset	n/a	n/a	n/a
101.4515087	2.1820929999999934	9.2167561	2.1820929999999934	8	stim1	n/a	n/a	n/a
103.6336017	0.017885099999999512	7.034663100000005	n/a	8	choice1	0	n/a	n/a
110.66826480000002	0.28157159999999565	2.3	0.28157159999999565	8	stim2	n/a	1	n/a
110.9498364	0.01842840000000433	2.0184284000000043	n/a	8	choice2	n/a	1	n/a
112.9682648	1.5	n/a	n/a	8	outcome	n/a	n/a	1
114.4682648	3.5667920999999914	7.233487099999999	n/a	8	ITI_onset	n/a	n/a	n/a
118.03505689999999	0.6323125	3.666695000000007	0.6323125	9	stim1	n/a	n/a	n/a
118.6673694	0.017666700000001583	3.034382500000007	n/a	9	choice1	0	n/a	n/a
121.70175190000002	0.28601540000000386	5.7999777999999935	0.28601540000000386	9	stim2	n/a	1	n/a
121.98776730000002	0.01396239999998943	5.51396239999999	n/a	9	choice2	n/a	1	n/a
127.50172970000001	1.5	n/a	n/a	9	outcome	n/a	n/a	0
129.0017297	7.066901100000018	9.300257899999997	n/a	9	ITI_onset	n/a	n/a	n/a
136.0686308	0.20848399999999673	2.2333567999999797	0.20848399999999673	10	stim1	n/a	n/a	n/a
136.2771148	0.008192099999985658	2.024872799999983	n/a	10	choice1	1	n/a	n/a
138.3019876	0.3773173999999999	2.88334050000002	0.3773173999999999	10	stim2	n/a	0	n/a
138.67930499999997	0.006023100000020349	2.50602310000002	n/a	10	choice2	n/a	0	n/a
141.1853281	1.5	n/a	n/a	10	outcome	n/a	n/a	1
142.6853281	7.56684659999999	10.650213699999993	n/a	10	ITI_onset	n/a	n/a	n/a
150.25217469999998	0.5619849999999861	3.083367100000003	0.5619849999999861	11	stim1	n/a	n/a	n/a
150.81415969999998	0.004680000000022119	2.521382100000017	n/a	11	choice1	0	n/a	n/a
153.3355418	0.48658199999999485	2.5000139999999957	0.48658199999999485	11	stim2	n/a	1	n/a
153.82212379999999	0.013432000000000699	2.0134320000000008	n/a	11	choice2	n/a	1	n/a
155.83555579999998	1.5	n/a	n/a	11	outcome	n/a	n/a	1
157.33555579999998	4.56674900000001	8.016824599999993	n/a	11	ITI_onset	n/a	n/a	n/a
161.9023048	0.41239989999998944	3.450075599999982	0.41239989999998944	12	stim1	n/a	n/a	n/a
162.3147047	0.020954100000002654	3.0376756999999923	n/a	12	choice1	1	n/a	n/a
165.3523804	0.26579099999999745	4.2833387999999974	0.26579099999999745	12	stim2	n/a	0	n/a
165.6181714	0.01754780000000028	4.0175478	n/a	12	choice2	n/a	0	n/a
169.63571919999998	1.5	n/a	n/a	12	outcome	n/a	n/a	1
171.13571919999998	2.066822500000009	8.183533200000005	n/a	12	ITI_onset	n/a	n/a	n/a
173.20254169999998	1.0926967000000005	6.116710699999996	1.0926967000000005	13	stim1	n/a	n/a	n/a
174.2952384	0.007281099999992875	5.024013999999996	n/a	13	choice1	1	n/a	n/a
179.31925239999998	0.24895819999999366	3.2666921999999903	0.24895819999999366	13	stim2	n/a	0	n/a
179.5682106	0.017733999999996742	3.017733999999997	n/a	13	choice2	n/a	0	n/a
182.58594459999998	1.5	n/a	n/a	13	outcome	n/a	n/a	1
184.08594459999998	2.6001042000000014	5.633458700000017	n/a	13	ITI_onset	n/a	n/a	n/a
186.68604879999998	0.5027330000000074	3.0333545000000157	0.5027330000000074	14	stim1	n/a	n/a	n/a
187.1887818	0.01392180000001099	2.5306215000000085	n/a	14	choice1	1	n/a	n/a
189.71940329999998	2.0972592000000003	4.116709100000008	2.0972592000000003	14	stim2	n/a	0	n/a
191.8166625	0.019449900000006893	2.019449900000007	n/a	14	choice2	n/a	0	n/a
193.8361124	1.5	n/a	n/a	14	outcome	n/a	n/a	1
195.3361124	3.5667978000000002	6.91679329999999	n/a	14	ITI_onset	n/a	n/a	n/a
198.9029102	0.31716199999998207	3.34999549999999	0.31716199999998207	15	stim1	n/a	n/a	n/a
199.22007219999998	0.016130200000014156	3.0328335000000077	n/a	15	choice1	1	n/a	n/a
202.25290569999999	1.4672687999999907	3.4833392999999924	1.4672687999999907	15	stim2	n/a	0	n/a
203.72017449999998	0.01607050000000163	2.0160705000000014	n/a	15	choice2	n/a	0	n/a
205.736245	1.5	n/a	n/a	15	outcome	n/a	n/a	1
207.236245	6.5668495000000116	13.400273799999995	n/a	15	ITI_onset	n/a	n/a	n/a
213.8030945	2.3131224999999977	6.833424299999984	2.3131224999999977	16	stim1	n/a	n/a	n/a
216.116217	0.0035688000000081957	4.520301799999986	n/a	16	choice1	1	n/a	n/a
220.63651879999998	6.4466418000000125	12.466750300000013	6.4466418000000125	16	stim2	n/a	0	n/a
227.08316059999999	0.020108500000002097	6.020108500000002	n/a	16	choice2	n/a	0	n/a
233.1032691	1.5	n/a	n/a	16	outcome	n/a	n/a	0
234.6032691	3.566844699999987	8.500266400000022	n/a	16	ITI_onset	n/a	n/a	n/a
238.1701138	0.4019974999999977	4.933421700000036	0.4019974999999977	17	stim1	n/a	n/a	n/a
238.5721113	0.014664600000018254	4.531424200000037	n/a	17	choice1	1	n/a	n/a
243.1035355	0.6805944000000018	6.199992999999958	0.6805944000000018	17	stim2	n/a	0	n/a
243.7841299	0.019398599999956787	5.519398599999957	n/a	17	choice2	n/a	0	n/a
249.3035285	1.5	n/a	n/a	17	outcome	n/a	n/a	1
250.8035285	6.56687340000004	21.06713650000002	n/a	17	ITI_onset	n/a	n/a	n/a
257.37040190000005	11.46718339999998	14.500263099999982	11.46718339999998	18	stim1	n/a	n/a	n/a
268.8375853	0.016277499999967405	3.0330797000000023	n/a	18	choice1	1	n/a	n/a
271.87066500000003	0.39441889999998964	2.39993670000002	0.39441889999998964	18	stim2	n/a	1	n/a
272.26508390000004	0.005517800000030547	2.0055178000000304	n/a	18	choice2	n/a	1	n/a
274.27060170000004	1.5	n/a	n/a	18	outcome	n/a	n/a	0
275.77060170000004	2.5667616999999736	7.150149899999961	n/a	18	ITI_onset	n/a	n/a	n/a
278.3373634	1.060202099999995	4.583388199999987	1.060202099999995	19	stim1	n/a	n/a	n/a
279.39756550000004	0.006475600000005215	3.5231860999999918	n/a	19	choice1	1	n/a	n/a
282.9207516	0.8698299000000116	2.8833481000000027	0.8698299000000116	19	stim2	n/a	1	n/a
283.79058150000003	0.013518199999991338	2.013518199999991	n/a	19	choice2	n/a	1	n/a
285.8040997	1.5	n/a	n/a	19	outcome	n/a	n/a	0
287.3040997	4.566825599999982	8.866841000000015	n/a	19	ITI_onset	n/a	n/a	n/a
291.8709253	0.2700242000000435	4.300015400000033	0.2700242000000435	20	stim1	n/a	n/a	n/a
292.14094950000003	0.01326639999996405	4.02999119999999	n/a	20	choice1	0	n/a	n/a
296.1709407	0.4809776999999885	5.999984200000006	0.4809776999999885	20	stim2	n/a	1	n/a
296.6519184	0.019006500000017697	5.5190065000000175	n/a	20	choice2	n/a	1	n/a
302.17092490000005	1.5	n/a	n/a	20	outcome	n/a	n/a	1
303.67092490000005	4.06686579999997	12.766974099999992	n/a	20	ITI_onset	n/a	n/a	n/a
307.7377907	0.6702623000000021	8.700108300000021	0.6702623000000021	21	stim1	n/a	n/a	n/a
308.408053	0.01307420000003185	8.029846000000019	n/a	21	choice1	0	n/a	n/a
316.437899	0.420008600000001	5.4333414999999805	0.420008600000001	21	stim2	n/a	1	n/a
316.85790760000003	0.013332899999979417	5.0133328999999796	n/a	21	choice2	n/a	1	n/a
321.8712405	1.5	n/a	n/a	21	outcome	n/a	n/a	0
323.3712405	4.066843099999998	6.950163000000001	n/a	21	ITI_onset	n/a	n/a	n/a
327.4380836	0.3598798999999999	2.8833199000000023	0.3598798999999999	22	stim1	n/a	n/a	n/a
327.7979635	0.006779199999989942	2.523440000000002	n/a	22	choice1	1	n/a	n/a
330.32140350000003	0.592483899999992	6.600064600000041	0.592483899999992	22	stim2	n/a	1	n/a
330.9138874	0.007580700000049546	6.00758070000005	n/a	22	choice2	n/a	1	n/a
336.9214681	1.5	n/a	n/a	22	outcome	n/a	n/a	1
338.4214681	8.566906799999996	16.100324800000003	n/a	22	ITI_onset	n/a	n/a	n/a
346.98837490000005	3.9961079999999494	7.5334180000000055	3.9961079999999494	23	stim1	n/a	n/a	n/a
350.9844829	0.020640200000023468	3.5373100000000557	n/a	23	choice1	0	n/a	n/a
354.52179290000004	3.6556640999999943	5.66671179999999	3.6556640999999943	23	stim2	n/a	1	n/a
358.17745700000006	0.01104769999999553	2.0110476999999953	n/a	23	choice2	n/a	1	n/a
360.1885047	1.5	n/a	n/a	23	outcome	n/a	n/a	1
361.6885047	4.566782999999996	12.783569199999969	n/a	23	ITI_onset	n/a	n/a	n/a
366.25528770000005	2.187657599999977	8.216786199999973	2.187657599999977	24	stim1	n/a	n/a	n/a
368.4429453	0.012403300000005401	6.029128599999996	n/a	24	choice1	0	n/a	n/a
374.4720739	0.2540922000000137	6.266640000000014	0.2540922000000137	24	stim2	n/a	1	n/a
374.7261661	0.012547800000000279	6.0125478	n/a	24	choice2	n/a	1	n/a
380.7387139	1.5	n/a	n/a	24	outcome	n/a	n/a	1
382.2387139	3.0668617000000085	13.817035800000012	n/a	24	ITI_onset	n/a	n/a	n/a
385.30557560000005	7.223281399999978	10.750174100000004	7.223281399999978	25	stim1	n/a	n/a	n/a
392.528857	0.01012640000000829	3.5268927000000256	n/a	25	choice1	0	n/a	n/a
396.05574970000004	0.2460920000000042	3.7666332999999868	0.2460920000000042	25	stim2	n/a	1	n/a
396.3018417	0.020541299999982585	3.5205412999999828	n/a	25	choice2	n/a	1	n/a
399.822383	1.5	n/a	n/a	25	outcome	n/a	n/a	1
401.322383	1.0	1.0	n/a	25	ITI_onset	n/a	n/a	n/a
