onset	duration	duration2fb	response_time	trial	event	choice1	state	reward
0.0	0.7148238359999813	4.283373256999985	0.7148238359999813	1	stim1	n/a	n/a	n/a
0.7148238359999795	0.0185891840000113	3.5685494210000033	n/a	1	choice1	1	n/a	n/a
4.28337325699998	0.5923593339999934	6.100508293000006	0.5923593339999934	1	stim2	n/a	1	n/a
4.875732590999974	0.008148959000012838	5.508148959000013	n/a	1	choice2	n/a	1	n/a
10.383881549999984	1.5	n/a	n/a	1	outcome	n/a	n/a	0
11.883881549999984	2.566407797000007	8.783114580000008	n/a	1	ITI_onset	n/a	n/a	n/a
14.450289346999995	0.6815403240000014	6.216706783000001	0.6815403240000014	2	stim1	n/a	n/a	n/a
15.131829670999991	0.018416591999979574	5.535166459	n/a	2	choice1	1	n/a	n/a
20.66699613	0.5279259609999862	3.0333324349999895	0.5279259609999862	2	stim2	n/a	1	n/a
21.19492209099998	0.005406474000003073	2.505406474000003	n/a	2	choice2	n/a	1	n/a
23.700328564999992	1.5	n/a	n/a	2	outcome	n/a	n/a	1
25.200328564999978	3.066834894999993	8.633544517000017	n/a	2	ITI_onset	n/a	n/a	n/a
28.267163459999978	0.5408205920000037	5.566709622000024	0.5408205920000037	3	stim1	n/a	n/a	n/a
28.807984051999995	0.009582993000018178	5.0258890300000205	n/a	3	choice1	1	n/a	n/a
33.833873082	0.6082175319999805	4.116659432999964	0.6082175319999805	3	stim2	n/a	1	n/a
34.442090613999994	0.008441900999983773	3.508441900999984	n/a	3	choice2	n/a	1	n/a
37.95053251499996	1.5	n/a	n/a	3	outcome	n/a	n/a	1
39.45053251499996	7.066965782000043	10.566963055000029	n/a	3	ITI_onset	n/a	n/a	n/a
46.517498297	0.4644758469999942	3.499997272999986	0.4644758469999942	4	stim1	n/a	n/a	n/a
46.98197414399999	0.018841333999997004	3.035521425999992	n/a	4	choice1	1	n/a	n/a
50.017495569999994	0.5581134159999783	2.5666842790000084	0.5581134159999783	4	stim2	n/a	1	n/a
50.57560898599996	0.00857086300002993	2.00857086300003	n/a	4	choice2	n/a	1	n/a
52.58417984900001	1.5	n/a	n/a	4	outcome	n/a	n/a	0
54.08417984900001	3.0834622149999777	8.700224625000002	n/a	4	ITI_onset	n/a	n/a	n/a
57.16764206399998	0.5823779060000088	5.616762410000025	0.5823779060000088	5	stim1	n/a	n/a	n/a
57.75001996999998	0.01763993100001244	5.034384504000016	n/a	5	choice1	1	n/a	n/a
62.78440447400001	0.595455392999982	2.600016232999973	0.595455392999982	5	stim2	n/a	1	n/a
63.37985986699999	0.004560839999991004	2.004560839999991	n/a	5	choice2	n/a	1	n/a
65.38442070699998	1.5	n/a	n/a	5	outcome	n/a	n/a	1
66.88442070699998	2.566749241000012	6.583445694000024	n/a	5	ITI_onset	n/a	n/a	n/a
69.451169948	0.49187264499999583	4.016696453000011	0.49187264499999583	6	stim1	n/a	n/a	n/a
69.943042593	0.008116929000010714	3.5248238080000154	n/a	6	choice1	1	n/a	n/a
73.46786640100001	0.6251237889999757	5.633369038999983	0.6251237889999757	6	stim2	n/a	1	n/a
74.09299018999997	0.008245250000007217	5.008245250000007	n/a	6	choice2	n/a	1	n/a
79.10123543999998	1.5	n/a	n/a	6	outcome	n/a	n/a	0
80.60123543999998	6.566891356000007	9.066917500999988	n/a	6	ITI_onset	n/a	n/a	n/a
87.168126796	0.46585497400001624	2.5000261449999814	0.46585497400001624	7	stim1	n/a	n/a	n/a
87.63398177000002	0.017469584999984362	2.0341711709999655	n/a	7	choice1	1	n/a	n/a
89.66815294099999	0.6117684880000015	3.6166786810000193	0.6117684880000015	7	stim2	n/a	0	n/a
90.27992142899998	0.004910193000017898	3.004910193000018	n/a	7	choice2	n/a	0	n/a
93.28483162199998	1.5	n/a	n/a	7	outcome	n/a	n/a	1
94.78483162199998	4.066825431999983	8.483547676999995	n/a	7	ITI_onset	n/a	n/a	n/a
98.85165705399999	0.38519672600002375	4.416722245000011	0.38519672600002375	8	stim1	n/a	n/a	n/a
99.23685377999999	0.014753035999980057	4.031525518999988	n/a	8	choice1	0	n/a	n/a
103.268379299	0.4776187780000037	2.483347015999985	0.4776187780000037	8	stim2	n/a	0	n/a
103.745998077	0.005728237999981502	2.0057282379999815	n/a	8	choice2	n/a	0	n/a
105.75172631499998	1.5	n/a	n/a	8	outcome	n/a	n/a	1
107.25172631499998	5.566803776999993	11.533575121000002	n/a	8	ITI_onset	n/a	n/a	n/a
112.81853009199997	0.44153466500001376	5.966771344000008	0.44153466500001376	9	stim1	n/a	n/a	n/a
113.26006475699998	0.008442221000004793	5.5252366789999945	n/a	9	choice1	0	n/a	n/a
118.78530143599997	0.6207589600000065	4.633316748000012	0.6207589600000065	9	stim2	n/a	0	n/a
119.40606039599999	0.01255778800000553	4.012557788000006	n/a	9	choice2	n/a	0	n/a
123.418618184	1.5	n/a	n/a	9	outcome	n/a	n/a	1
124.918618184	4.0668857420000135	8.633620708000002	n/a	9	ITI_onset	n/a	n/a	n/a
128.985503926	0.5400269289999851	4.566734965999989	0.5400269289999851	10	stim1	n/a	n/a	n/a
129.525530855	0.009974371000018436	4.026708037000004	n/a	10	choice1	0	n/a	n/a
133.552238892	0.5286320459999843	3.533319603000011	0.5286320459999843	10	stim2	n/a	1	n/a
134.08087093799998	0.004687557000026573	3.0046875570000267	n/a	10	choice2	n/a	1	n/a
137.08555849500002	1.5	n/a	n/a	10	outcome	n/a	n/a	1
138.58555849500002	5.066824147999985	9.633554621999966	n/a	10	ITI_onset	n/a	n/a	n/a
143.65238264299998	0.5344719230000046	4.566730473999982	0.5344719230000046	11	stim1	n/a	n/a	n/a
144.186854566	0.015534829999989596	4.032258550999977	n/a	11	choice1	1	n/a	n/a
148.21911311699998	0.5386304780000355	2.5500029039999936	0.5386304780000355	11	stim2	n/a	0	n/a
148.757743595	0.011372425999958068	2.011372425999958	n/a	11	choice2	n/a	0	n/a
150.76911602099997	1.5	n/a	n/a	11	outcome	n/a	n/a	1
152.26911602099997	3.066798484000028	7.133533930000034	n/a	11	ITI_onset	n/a	n/a	n/a
155.335914505	0.5421949070000265	4.066735446000006	0.5421949070000265	12	stim1	n/a	n/a	n/a
155.87810941200001	0.0078156949999684	3.5245405389999798	n/a	12	choice1	1	n/a	n/a
159.402649951	0.4533767449999577	2.966629711000016	0.4533767449999577	12	stim2	n/a	1	n/a
159.85602669599996	0.013252966000058222	2.513252966000058	n/a	12	choice2	n/a	1	n/a
162.369279662	1.5	n/a	n/a	12	outcome	n/a	n/a	0
163.869279662	8.066906433999947	14.550378882999997	n/a	12	ITI_onset	n/a	n/a	n/a
171.93618609599997	0.4596923700000625	6.483472449000052	0.4596923700000625	13	stim1	n/a	n/a	n/a
172.395878466	0.006988667999976315	6.023780078999989	n/a	13	choice1	1	n/a	n/a
178.419658545	0.5350073409999604	2.549918210999982	0.5350073409999604	13	stim2	n/a	1	n/a
178.954665886	0.014910870000021533	2.0149108700000213	n/a	13	choice2	n/a	1	n/a
180.96957675599998	1.5	n/a	n/a	13	outcome	n/a	n/a	1
182.46957675599998	3.5668153259999817	9.366939733000006	n/a	13	ITI_onset	n/a	n/a	n/a
186.03639208199996	0.7675383179999772	5.800124407000025	0.7675383179999772	14	stim1	n/a	n/a	n/a
186.80393039999996	0.01582002200005809	5.032586089000048	n/a	14	choice1	1	n/a	n/a
191.83651648900002	0.4683668529999559	3.9833444489999676	0.4683668529999559	14	stim2	n/a	1	n/a
192.30488334199998	0.014977596000011544	3.5149775960000116	n/a	14	choice2	n/a	1	n/a
195.81986093799998	1.5	n/a	n/a	14	outcome	n/a	n/a	1
197.31986093799998	5.600159952000016	10.100283301000017	n/a	14	ITI_onset	n/a	n/a	n/a
202.92002089	0.47285519100003875	4.500123349000002	0.47285519100003875	15	stim1	n/a	n/a	n/a
203.392876081	0.01046680200000992	4.027268157999963	n/a	15	choice1	1	n/a	n/a
207.42014423899997	0.4857158160000108	2.499969363000011	0.4857158160000108	15	stim2	n/a	1	n/a
207.905860055	0.014253547000000253	2.014253547	n/a	15	choice2	n/a	1	n/a
209.92011360200001	1.5	n/a	n/a	15	outcome	n/a	n/a	0
211.42011360200001	7.566851255999994	12.033594209000002	n/a	15	ITI_onset	n/a	n/a	n/a
218.98696485799996	0.43898878100002187	4.466742953000008	0.43898878100002187	16	stim1	n/a	n/a	n/a
219.425953639	0.011005748999945353	4.0277541719999865	n/a	16	choice1	1	n/a	n/a
223.45370781100002	0.5492583229999873	6.066690054000006	0.5492583229999873	16	stim2	n/a	1	n/a
224.00296613399996	0.017431731000018772	5.517431731000019	n/a	16	choice2	n/a	1	n/a
229.520397865	1.5	n/a	n/a	16	outcome	n/a	n/a	1
231.020397865	8.066940759000019	10.566942524000012	n/a	16	ITI_onset	n/a	n/a	n/a
239.08733862400004	0.47565611199993874	2.5000017649999937	0.47565611199993874	17	stim1	n/a	n/a	n/a
239.56299473599995	0.007607175000011921	2.0243456530000548	n/a	17	choice1	1	n/a	n/a
241.58734038900002	0.5066847079999861	7.016644963999977	0.5066847079999861	17	stim2	n/a	0	n/a
242.09402509699999	0.009960255999991204	6.509960255999991	n/a	17	choice2	n/a	0	n/a
248.60398535299998	1.5	n/a	n/a	17	outcome	n/a	n/a	0
250.10398535299998	7.56695311100001	10.516992071999994	n/a	17	ITI_onset	n/a	n/a	n/a
257.670938464	0.4137683020000113	2.9500389609999838	0.4137683020000113	18	stim1	n/a	n/a	n/a
258.084706766	0.01961863699997775	2.5362706589999724	n/a	18	choice1	1	n/a	n/a
260.620977425	0.6225147080000024	4.633368397000013	0.6225147080000024	18	stim2	n/a	1	n/a
261.243492133	0.01085368900001049	4.010853689000011	n/a	18	choice2	n/a	1	n/a
265.254345822	1.5	n/a	n/a	18	outcome	n/a	n/a	1
266.754345822	3.066803295999998	8.583554446000024	n/a	18	ITI_onset	n/a	n/a	n/a
269.821149118	0.4856850199999753	5.516751150000026	0.4856850199999753	19	stim1	n/a	n/a	n/a
270.306834138	0.01427985200000694	5.03106613000005	n/a	19	choice1	1	n/a	n/a
275.337900268	0.38004849899996773	3.899978313999949	0.38004849899996773	19	stim2	n/a	1	n/a
275.717948767	0.019929814999981317	3.519929814999981	n/a	19	choice2	n/a	1	n/a
279.23787858199995	1.5	n/a	n/a	19	outcome	n/a	n/a	1
280.73787858199995	6.066882694999978	12.033643772999989	n/a	19	ITI_onset	n/a	n/a	n/a
286.80476127699995	0.4356752190000261	5.966761078000011	0.4356752190000261	20	stim1	n/a	n/a	n/a
287.240436496	0.014332464000035542	5.531085858999984	n/a	20	choice1	1	n/a	n/a
292.77152235499995	0.4992937550000497	6.016652021999994	0.4992937550000497	20	stim2	n/a	0	n/a
293.27081611	0.017358266999945044	5.5173582669999455	n/a	20	choice2	n/a	0	n/a
298.78817437699996	1.5	n/a	n/a	20	outcome	n/a	n/a	0
300.28817437699996	3.5668725900000426	6.066920550000039	n/a	20	ITI_onset	n/a	n/a	n/a
303.855046967	0.46643626600003335	2.5000479599999963	0.46643626600003335	21	stim1	n/a	n/a	n/a
304.32148323300004	0.01691620299994247	2.033611693999963	n/a	21	choice1	1	n/a	n/a
306.355094927	0.46636055699997814	2.983355676999956	0.46636055699997814	21	stim2	n/a	0	n/a
306.82145548399996	0.01699511999997776	2.5169951199999776	n/a	21	choice2	n/a	0	n/a
309.33845060399995	1.5	n/a	n/a	21	outcome	n/a	n/a	0
310.83845060399995	8.066849010000064	12.48358986200008	n/a	21	ITI_onset	n/a	n/a	n/a
318.905299614	0.3865877239999827	4.416740852000017	0.3865877239999827	22	stim1	n/a	n/a	n/a
319.291887338	0.013407591999974102	4.030153128000035	n/a	22	choice1	1	n/a	n/a
323.32204046600003	0.4646882179999375	6.483338032999949	0.4646882179999375	22	stim2	n/a	0	n/a
323.78672868399997	0.018649815000011585	6.018649815000011	n/a	22	choice2	n/a	0	n/a
329.80537849899997	1.5	n/a	n/a	22	outcome	n/a	n/a	0
331.30537849899997	5.5668788450000575	10.000294015000051	n/a	22	ITI_onset	n/a	n/a	n/a
336.87225734400005	0.410631822999916	4.433415169999993	0.410631822999916	23	stim1	n/a	n/a	n/a
337.28288916699995	0.006035244999977294	4.022783347000077	n/a	23	choice1	1	n/a	n/a
341.30567251400004	0.4570306779999519	2.966658582999953	0.4570306779999519	23	stim2	n/a	1	n/a
341.762703192	0.009627905000001193	2.509627905000001	n/a	23	choice2	n/a	1	n/a
344.272331097	1.5	n/a	n/a	23	outcome	n/a	n/a	0
345.772331097	2.566798484000028	5.050154481999984	n/a	23	ITI_onset	n/a	n/a	n/a
348.339129581	0.44726610999996774	2.4833559979999555	0.44726610999996774	24	stim1	n/a	n/a	n/a
348.786395691	0.019355579999973997	2.036089887999988	n/a	24	choice1	1	n/a	n/a
350.822485579	0.5654251310000545	3.5833595590000042	0.5654251310000545	24	stim2	n/a	1	n/a
351.38791071	0.01793442799994955	3.0179344279999496	n/a	24	choice2	n/a	1	n/a
354.40584513799996	1.5	n/a	n/a	24	outcome	n/a	n/a	0
355.90584513799996	3.0667750649999945	10.116883031000034	n/a	24	ITI_onset	n/a	n/a	n/a
358.97262020299996	0.5167399219999789	7.05010796600004	0.5167399219999789	25	stim1	n/a	n/a	n/a
359.48936012499996	0.016599250000028404	6.533368044000061	n/a	25	choice1	0	n/a	n/a
366.022728169	0.495053396000003	2.999979950000008	0.495053396000003	25	stim2	n/a	0	n/a
366.517781565	0.004926554000005126	2.504926554000005	n/a	25	choice2	n/a	0	n/a
369.022708119	1.5	n/a	n/a	25	outcome	n/a	n/a	1
370.522708119	1.0	1.0	n/a	25	ITI_onset	n/a	n/a	n/a
