onset	duration	duration2fb	response_time	trial	event	choice1	state	reward
0.0	0.7671119719999843	4.366762810999979	0.7671119719999843	1	stim1	n/a	n/a	n/a
0.7671119719999808	0.01619856800000707	3.5996508389999944	n/a	1	choice1	1	n/a	n/a
4.3667628109999725	0.4489891370000114	5.966878332000007	0.4489891370000114	1	stim2	n/a	0	n/a
4.815751947999985	0.017889194999996107	5.517889194999996	n/a	1	choice2	n/a	0	n/a
10.33364114299998	1.5	n/a	n/a	1	outcome	n/a	n/a	1
11.83364114299998	2.0665785739999993	8.266646970000016	n/a	1	ITI_onset	n/a	n/a	n/a
13.900219716999985	0.676181328999999	6.200068396000017	0.676181328999999	2	stim1	n/a	n/a	n/a
14.576401045999987	0.007167355000012321	5.523887067000018	n/a	2	choice1	0	n/a	n/a
20.100288113000005	0.29401521599998526	2.7999856589999834	0.29401521599998526	2	stim2	n/a	1	n/a
20.39430332899998	0.0059704429999983405	2.5059704429999985	n/a	2	choice2	n/a	1	n/a
22.900273771999977	1.5	n/a	n/a	2	outcome	n/a	n/a	0
24.400273771999977	3.066807627000002	8.900231908000002	n/a	2	ITI_onset	n/a	n/a	n/a
27.46708139899998	0.810232553000009	5.833424280999999	0.810232553000009	3	stim1	n/a	n/a	n/a
28.277313951999986	0.006808056999987457	5.023191727999991	n/a	3	choice1	1	n/a	n/a
33.300505679999986	0.6268192269999999	4.133341449	0.6268192269999999	3	stim2	n/a	0	n/a
33.927324906999985	0.006522221999999601	3.5065222219999996	n/a	3	choice2	n/a	0	n/a
37.433847128999986	1.5	n/a	n/a	3	outcome	n/a	n/a	1
38.933847128999986	6.566911085999993	10.200247403	n/a	3	ITI_onset	n/a	n/a	n/a
45.500758214999976	0.6019625380000071	3.6333363170000084	0.6019625380000071	4	stim1	n/a	n/a	n/a
46.102720752999986	0.01464235799999733	3.0313737790000013	n/a	4	choice1	1	n/a	n/a
49.13409453199998	0.5301045270000031	2.5499865430000064	0.5301045270000031	4	stim2	n/a	0	n/a
49.66419905899998	0.019882016000003205	2.019882016000003	n/a	4	choice2	n/a	0	n/a
51.684081074999995	1.5	n/a	n/a	4	outcome	n/a	n/a	0
53.184081074999995	3.0668042579999892	8.516859419999994	n/a	4	ITI_onset	n/a	n/a	n/a
56.250885332999985	0.4141917610000237	5.450055162000004	0.4141917610000237	5	stim1	n/a	n/a	n/a
56.665077094	0.01910631599999033	5.035863400999981	n/a	5	choice1	0	n/a	n/a
61.700940495	0.3692256059999927	2.383323243999999	0.3692256059999927	5	stim2	n/a	1	n/a
62.070166100999984	0.014097638000006555	2.0140976380000066	n/a	5	choice2	n/a	1	n/a
64.084263739	1.5	n/a	n/a	5	outcome	n/a	n/a	0
65.584263739	2.5670084489999865	7.850203661000007	n/a	5	ITI_onset	n/a	n/a	n/a
68.15127218799998	1.7554745640000329	5.28319521200002	1.7554745640000329	6	stim1	n/a	n/a	n/a
69.906746752	0.011010881999973209	3.527720647999988	n/a	6	choice1	1	n/a	n/a
73.43446739999999	0.343592896999995	5.349999309999984	0.343592896999995	6	stim2	n/a	0	n/a
73.778060297	0.006406412999989698	5.00640641299999	n/a	6	choice2	n/a	0	n/a
78.78446670999998	1.5	n/a	n/a	6	outcome	n/a	n/a	1
80.28446670999998	6.066873231000005	9.000317754000019	n/a	6	ITI_onset	n/a	n/a	n/a
86.35133994099999	0.9099980780000042	2.933444523000013	0.9099980780000042	7	stim1	n/a	n/a	n/a
87.261338019	0.006649261000013212	2.0234464450000087	n/a	7	choice1	1	n/a	n/a
89.28478446399998	0.4734820379999874	3.4833473369999846	0.4734820379999874	7	stim2	n/a	0	n/a
89.75826650199997	0.00986529899999732	3.009865298999997	n/a	7	choice2	n/a	0	n/a
92.76813180099998	1.5	n/a	n/a	7	outcome	n/a	n/a	1
94.26813180099998	4.06678821800003	8.433480774000024	n/a	7	ITI_onset	n/a	n/a	n/a
98.33492001900001	0.33045766599997295	4.366692555999995	0.33045766599997295	8	stim1	n/a	n/a	n/a
98.66537768499998	0.019543569000001298	4.036234890000022	n/a	8	choice1	1	n/a	n/a
102.70161257500001	0.8336610319999745	2.8500254549999955	0.8336610319999745	8	stim2	n/a	0	n/a
103.53527360699997	0.016364423000020906	2.016364423000021	n/a	8	choice2	n/a	0	n/a
105.55163802999999	1.5	n/a	n/a	8	outcome	n/a	n/a	1
107.05163802999999	5.5668101939999906	11.433592733999976	n/a	8	ITI_onset	n/a	n/a	n/a
112.61844822399999	0.33370674700001834	5.866782539999986	0.33370674700001834	9	stim1	n/a	n/a	n/a
112.952154971	0.01628582599997753	5.533075792999967	n/a	9	choice1	1	n/a	n/a
118.48523076399997	0.6549227529999917	4.66662432100001	0.6549227529999917	9	stim2	n/a	1	n/a
119.14015351699996	0.011701568000018597	4.011701568000019	n/a	9	choice2	n/a	1	n/a
123.151855085	1.5	n/a	n/a	9	outcome	n/a	n/a	0
124.651855085	4.566887826999999	8.950264966000017	n/a	9	ITI_onset	n/a	n/a	n/a
129.21874291199998	0.3479952620000113	4.383377139000018	0.3479952620000113	10	stim1	n/a	n/a	n/a
129.566738174	0.018688310999976237	4.035381877000007	n/a	10	choice1	0	n/a	n/a
133.602120051	0.49001520299998813	3.4999940659999846	0.49001520299998813	10	stim2	n/a	1	n/a
134.092135254	0.009978862999996636	3.0099788629999966	n/a	10	choice2	n/a	1	n/a
137.10211411699999	1.5	n/a	n/a	10	outcome	n/a	n/a	0
138.60211411699999	5.06685719000001	9.416890505999996	n/a	10	ITI_onset	n/a	n/a	n/a
143.668971307	0.31969091400000615	4.350033315999986	0.31969091400000615	11	stim1	n/a	n/a	n/a
143.988662221	0.013609697999985656	4.03034240199998	n/a	11	choice1	0	n/a	n/a
148.01900462299997	0.37967444299999625	2.4000437569999775	0.37967444299999625	11	stim2	n/a	1	n/a
148.39867906599997	0.020369313999981386	2.020369313999981	n/a	11	choice2	n/a	1	n/a
150.41904837999996	1.5	n/a	n/a	11	outcome	n/a	n/a	0
151.91904837999996	3.566725822000037	7.383572346000001	n/a	11	ITI_onset	n/a	n/a	n/a
155.485774202	0.28645135099996694	3.8168465239999643	0.28645135099996694	12	stim1	n/a	n/a	n/a
155.77222555299997	0.013614510000043083	3.530395172999997	n/a	12	choice1	1	n/a	n/a
159.30262072599996	0.45041157300001944	2.966563305000018	0.45041157300001944	12	stim2	n/a	0	n/a
159.75303229899998	0.016151731999998448	2.5161517319999986	n/a	12	choice2	n/a	0	n/a
162.26918403099998	1.5	n/a	n/a	12	outcome	n/a	n/a	1
163.76918403099998	7.566896970000002	14.366977427000005	n/a	12	ITI_onset	n/a	n/a	n/a
171.33608100099997	0.7651306999999797	6.8000804570000035	0.7651306999999797	13	stim1	n/a	n/a	n/a
172.10121170099995	0.01821384599999874	6.034949757000024	n/a	13	choice1	1	n/a	n/a
178.13616145799998	0.5865653320000274	2.6000752599999832	0.5865653320000274	13	stim2	n/a	0	n/a
178.72272679	0.013509927999955835	2.013509927999956	n/a	13	choice2	n/a	0	n/a
180.73623671799996	1.5	n/a	n/a	13	outcome	n/a	n/a	0
182.23623671799996	3.566753411999991	8.866825047000049	n/a	13	ITI_onset	n/a	n/a	n/a
185.80299012999998	0.2741123490000027	5.300071635000059	0.2741123490000027	14	stim1	n/a	n/a	n/a
186.07710247899993	0.009203485000005458	5.025959286000056	n/a	14	choice1	1	n/a	n/a
191.10306176500004	0.45904017999995267	3.966597308999975	0.45904017999995267	14	stim2	n/a	0	n/a
191.56210194499997	0.007557129000022542	3.5075571290000225	n/a	14	choice2	n/a	0	n/a
195.069659074	1.5	n/a	n/a	14	outcome	n/a	n/a	0
196.569659074	5.566927446999995	10.583668812000019	n/a	14	ITI_onset	n/a	n/a	n/a
202.136586521	0.9794641900000279	5.016741365000024	0.9794641900000279	15	stim1	n/a	n/a	n/a
203.11605071100004	0.020561473999987357	4.037277174999995	n/a	15	choice1	0	n/a	n/a
207.15332788600003	0.3628705219999538	2.38332356499997	0.3628705219999538	15	stim2	n/a	1	n/a
207.51619840799995	0.020453043000015894	2.020453043000016	n/a	15	choice2	n/a	1	n/a
209.53665145099998	1.5	n/a	n/a	15	outcome	n/a	n/a	0
211.03665145099998	7.5668807699999885	11.883576356999983	n/a	15	ITI_onset	n/a	n/a	n/a
218.603532221	0.28962215599999763	4.316695586999995	0.28962215599999763	16	stim1	n/a	n/a	n/a
218.89315437699995	0.010327573999995366	4.027073430999997	n/a	16	choice1	0	n/a	n/a
222.92022780799996	0.7374352340000332	6.249997834000038	0.7374352340000332	16	stim2	n/a	1	n/a
223.657663042	0.01256260000000475	5.512562600000004	n/a	16	choice2	n/a	1	n/a
229.17022564200002	1.5	n/a	n/a	16	outcome	n/a	n/a	0
230.67022564200002	8.066959045999974	10.450317577999959	n/a	16	ITI_onset	n/a	n/a	n/a
238.73718468799999	0.3540391679999884	2.383358531999984	0.3540391679999884	17	stim1	n/a	n/a	n/a
239.09122385599997	0.012596285000036005	2.0293193639999956	n/a	17	choice1	1	n/a	n/a
241.12054321999997	0.4260976800000062	6.933324383000028	0.4260976800000062	17	stim2	n/a	0	n/a
241.54664089999997	0.007226703000022099	6.507226703000022	n/a	17	choice2	n/a	0	n/a
248.053867603	1.5	n/a	n/a	17	outcome	n/a	n/a	0
249.553867603	7.566888951000001	10.500310376000009	n/a	17	ITI_onset	n/a	n/a	n/a
257.12075655399997	0.4043370480000158	2.9334214250000077	0.4043370480000158	18	stim1	n/a	n/a	n/a
257.52509360199997	0.012368835999979637	2.529084376999992	n/a	18	choice1	1	n/a	n/a
260.054177979	0.468487473999965	4.4832931209999956	0.468487473999965	18	stim2	n/a	0	n/a
260.52266545299995	0.01480564700003015	4.01480564700003	n/a	18	choice2	n/a	0	n/a
264.53747109999995	1.5	n/a	n/a	18	outcome	n/a	n/a	0
266.03747109999995	3.0668514159999902	9.850290918999992	n/a	18	ITI_onset	n/a	n/a	n/a
269.104322516	1.7628668010000257	6.783439503000001	1.7628668010000257	19	stim1	n/a	n/a	n/a
270.867189317	0.0037771209999918937	5.020572701999976	n/a	19	choice1	0	n/a	n/a
275.887762019	0.5243406799999648	4.033295221999986	0.5243406799999648	19	stim2	n/a	0	n/a
276.412102699	0.008954542000021319	3.5089545420000214	n/a	19	choice2	n/a	0	n/a
279.92105724099997	1.5	n/a	n/a	19	outcome	n/a	n/a	0
281.42105724099997	6.066904830000014	12.333659588999987	n/a	19	ITI_onset	n/a	n/a	n/a
287.48796207099997	0.7366386829999974	6.266754758999974	0.7366386829999974	20	stim1	n/a	n/a	n/a
288.224600754	0.013383212000015191	5.530116075999977	n/a	20	choice1	0	n/a	n/a
293.75471683	0.4109115620000521	5.91661413500004	0.4109115620000521	20	stim2	n/a	0	n/a
294.16562839200003	0.005702572999987751	5.505702572999987	n/a	20	choice2	n/a	0	n/a
299.67133096500004	1.5	n/a	n/a	20	outcome	n/a	n/a	0
301.17133096500004	3.566883175999974	6.9835659629999425	n/a	20	ITI_onset	n/a	n/a	n/a
304.73821414099996	1.3940893539999961	3.416682786999969	1.3940893539999961	21	stim1	n/a	n/a	n/a
306.132303495	0.005929701999993995	2.022593432999973	n/a	21	choice1	1	n/a	n/a
308.15489692799997	0.40339902400004213	2.916703319000022	0.40339902400004213	21	stim2	n/a	0	n/a
308.558295952	0.013304294999979902	2.5133042949999798	n/a	21	choice2	n/a	0	n/a
311.071600247	1.5	n/a	n/a	21	outcome	n/a	n/a	0
312.571600247	8.06688943099999	12.966951955000056	n/a	21	ITI_onset	n/a	n/a	n/a
320.6384896779999	0.8671537080000271	4.900062524000067	0.8671537080000271	22	stim1	n/a	n/a	n/a
321.505643386	0.016208192999998573	4.032908816000039	n/a	22	choice1	0	n/a	n/a
325.538552202	0.3846427019999828	6.40002386799996	0.3846427019999828	22	stim2	n/a	1	n/a
325.92319490399996	0.015381165999977384	6.015381165999977	n/a	22	choice2	n/a	1	n/a
331.93857606999995	1.5	n/a	n/a	22	outcome	n/a	n/a	1
333.43857606999995	5.566920549000032	9.916997814000002	n/a	22	ITI_onset	n/a	n/a	n/a
339.00549661900004	0.3147043699999922	4.350077264999971	0.3147043699999922	23	stim1	n/a	n/a	n/a
339.320200989	0.018598486999981106	4.035372894999979	n/a	23	choice1	0	n/a	n/a
343.355573884	0.3943816050000023	2.8999282689999673	0.3943816050000023	23	stim2	n/a	1	n/a
343.74995548899994	0.005546663999964949	2.505546663999965	n/a	23	choice2	n/a	1	n/a
346.25550215299995	1.5	n/a	n/a	23	outcome	n/a	n/a	0
347.75550215299995	2.5667696120000327	6.167356607000053	n/a	23	ITI_onset	n/a	n/a	n/a
350.322271765	1.5738567659999827	3.6005869950000196	1.5738567659999827	24	stim1	n/a	n/a	n/a
351.89612853099993	0.00946718300000066	2.026730229000037	n/a	24	choice1	1	n/a	n/a
353.92285876000005	0.8563958829999901	3.86620471999998	0.8563958829999901	24	stim2	n/a	1	n/a
354.77925464299994	0.00980883699998958	3.00980883699999	n/a	24	choice2	n/a	1	n/a
357.78906348	1.5	n/a	n/a	24	outcome	n/a	n/a	1
359.28906348	3.066789181000029	10.850220664000021	n/a	24	ITI_onset	n/a	n/a	n/a
362.355852661	1.2597811679999578	7.783431482999993	1.2597811679999578	25	stim1	n/a	n/a	n/a
363.615633829	0.0067900919999810865	6.523650315000035	n/a	25	choice1	0	n/a	n/a
370.13928414400004	1.281853618000052	3.8000482159999667	1.281853618000052	25	stim2	n/a	1	n/a
371.42113776200006	0.01819459799991455	2.5181945979999147	n/a	25	choice2	n/a	1	n/a
373.93933236	1.5	n/a	n/a	25	outcome	n/a	n/a	1
375.43933236	1.0	1.0	n/a	25	ITI_onset	n/a	n/a	n/a
