onset	duration	duration2fb	response_time	trial	event	choice1	state	reward
0.0	0.7908152450000016	3.3333787809999995	0.7908152450000016	1	stim1	n/a	n/a	n/a
0.790815245000001	0.026147291999997834	2.5425635359999976	n/a	1	choice1	1	n/a	n/a
3.3333787810000004	0.6385266590000028	5.650029979000003	0.6385266590000028	1	stim2	n/a	0	n/a
3.9719054400000005	0.011503319999999803	5.01150332	n/a	1	choice2	n/a	0	n/a
8.98340876	1.5	n/a	n/a	1	outcome	n/a	n/a	1
10.48340876	4.066809755000002	7.783632004999999	n/a	1	ITI_onset	n/a	n/a	n/a
14.550218515000001	1.1826088709999967	3.716822249999997	1.1826088709999967	2	stim1	n/a	n/a	n/a
15.732827386	0.01745612300000357	2.5342133790000005	n/a	2	choice1	1	n/a	n/a
18.267040765	0.6289430179999981	4.133238557999997	0.6289430179999981	2	stim2	n/a	0	n/a
18.895983783000002	0.004295539999999164	3.5042955399999993	n/a	2	choice2	n/a	0	n/a
22.400279322999996	1.5	n/a	n/a	2	outcome	n/a	n/a	0
23.900279322999996	8.066926687000006	14.517056242999999	n/a	2	ITI_onset	n/a	n/a	n/a
31.96720601	0.4137005580000041	6.450129555999992	0.4137005580000041	3	stim1	n/a	n/a	n/a
32.380906568000015	0.01962346199998865	6.036428997999988	n/a	3	choice1	1	n/a	n/a
38.417335566000006	0.40544888699999865	2.9166724680000042	0.40544888699999865	3	stim2	n/a	0	n/a
38.822784453	0.011223581000005652	2.5112235810000056	n/a	3	choice2	n/a	0	n/a
41.33400803400001	1.5	n/a	n/a	3	outcome	n/a	n/a	1
42.83400803400001	4.066742226000002	7.233461129999996	n/a	3	ITI_onset	n/a	n/a	n/a
46.90075026000001	0.6436989500000054	3.166718903999994	0.6436989500000054	4	stim1	n/a	n/a	n/a
47.54444921000001	0.00631691399999545	2.5230199539999885	n/a	4	choice1	1	n/a	n/a
50.067469164	0.4947200790000061	4.5001875090000105	0.4947200790000061	4	stim2	n/a	0	n/a
50.562189243000006	0.005467430000004242	4.005467430000004	n/a	4	choice2	n/a	0	n/a
54.567656673000016	1.5	n/a	n/a	4	outcome	n/a	n/a	1
56.067656673000016	4.066718647000002	7.533413459000003	n/a	4	ITI_onset	n/a	n/a	n/a
60.13437532000002	0.9415873989999963	3.4666948120000014	0.9415873989999963	5	stim1	n/a	n/a	n/a
61.075962719	0.008368121999985306	2.525107413000005	n/a	5	choice1	1	n/a	n/a
63.60107013200002	1.0184810849999777	5.033329729999983	1.0184810849999777	5	stim2	n/a	1	n/a
64.619551217	0.014848645000005491	4.014848645000005	n/a	5	choice2	n/a	1	n/a
68.634399862	1.5	n/a	n/a	5	outcome	n/a	n/a	1
70.134399862	2.5668606020000007	5.317311976000012	n/a	5	ITI_onset	n/a	n/a	n/a
72.701260464	0.720233659000005	2.750451374000011	0.720233659000005	6	stim1	n/a	n/a	n/a
73.421494123	0.013044452999994974	2.0302177150000063	n/a	6	choice1	1	n/a	n/a
75.45171183800001	0.5637411979999888	3.582895325999998	0.5637411979999888	6	stim2	n/a	1	n/a
76.015453036	0.01915412800000922	3.019154128000009	n/a	6	choice2	n/a	1	n/a
79.03460716400001	1.5	n/a	n/a	6	outcome	n/a	n/a	0
80.53460716400001	4.566846165999989	7.116885030999998	n/a	6	ITI_onset	n/a	n/a	n/a
85.10145333	0.5243852870000119	2.5500388650000096	0.5243852870000119	7	stim1	n/a	n/a	n/a
85.62583861700001	0.0089465280000004	2.025653577999998	n/a	7	choice1	1	n/a	n/a
87.651492195	0.749007357999988	4.266677135999998	0.749007357999988	7	stim2	n/a	0	n/a
88.40049955299999	0.01766977800001041	3.5176697780000103	n/a	7	choice2	n/a	0	n/a
91.918169331	1.5	n/a	n/a	7	outcome	n/a	n/a	1
93.418169331	2.06678553400001	4.583489537000001	n/a	7	ITI_onset	n/a	n/a	n/a
95.48495486500002	0.4869807299999957	2.5167040029999916	0.4869807299999957	8	stim1	n/a	n/a	n/a
95.971935595	0.013060493000011775	2.029723272999996	n/a	8	choice1	1	n/a	n/a
98.001658868	0.7983053309999959	6.816660340999995	0.7983053309999959	8	stim2	n/a	0	n/a
98.799964199	0.01835500999999931	6.01835501	n/a	8	choice2	n/a	0	n/a
104.818319209	1.5	n/a	n/a	8	outcome	n/a	n/a	1
106.31831920900002	5.566939840999985	9.200336554000009	n/a	8	ITI_onset	n/a	n/a	n/a
111.88525904999999	0.6081659520000103	3.6333967130000238	0.6081659520000103	9	stim1	n/a	n/a	n/a
112.49342500200002	0.0084540960000013	3.0252307610000133	n/a	9	choice1	1	n/a	n/a
115.51865576300001	0.42517404299997724	2.9332839189999795	0.42517404299997724	9	stim2	n/a	0	n/a
115.94382980600001	0.008109876000002259	2.5081098760000025	n/a	9	choice2	n/a	0	n/a
118.451939682	1.5	n/a	n/a	9	outcome	n/a	n/a	0
119.951939682	2.5668296449999906	10.250735343000008	n/a	9	ITI_onset	n/a	n/a	n/a
122.51876932699999	0.6466410259999975	7.683905698000017	0.6466410259999975	10	stim1	n/a	n/a	n/a
123.16541035299998	0.02003857900001458	7.03726467200002	n/a	10	choice1	1	n/a	n/a
130.202675025	0.47411882799997696	2.9828590799999946	0.47411882799997696	10	stim2	n/a	0	n/a
130.67679385299996	0.00874025200001779	2.5087402520000177	n/a	10	choice2	n/a	0	n/a
133.185534105	1.5	n/a	n/a	10	outcome	n/a	n/a	1
134.685534105	2.066804462	5.30020848999999	n/a	10	ITI_onset	n/a	n/a	n/a
136.75233856699998	0.697514136999991	3.23340402799999	0.697514136999991	11	stim1	n/a	n/a	n/a
137.449852704	0.019156053000013343	2.5358898909999987	n/a	11	choice1	1	n/a	n/a
139.98574259499998	0.5022300550000218	5.016661977000011	0.5022300550000218	11	stim2	n/a	0	n/a
140.48797265000002	0.014431921999988844	4.514431921999988	n/a	11	choice2	n/a	0	n/a
145.002404572	1.5	n/a	n/a	11	outcome	n/a	n/a	1
146.502404572	2.0668163319999877	5.26732820399999	n/a	11	ITI_onset	n/a	n/a	n/a
148.569220904	0.6705340420000139	3.200511872000003	0.6705340420000139	12	stim1	n/a	n/a	n/a
149.239754946	0.012759901999990688	2.529977829999989	n/a	12	choice1	1	n/a	n/a
151.76973277599998	1.2351998770000063	4.749498024	1.2351998770000063	12	stim2	n/a	0	n/a
153.004932653	0.01429814699999406	3.514298146999994	n/a	12	choice2	n/a	0	n/a
156.51923079999997	1.5	n/a	n/a	12	outcome	n/a	n/a	1
158.01923079999997	3.566854347000015	7.683610897000006	n/a	12	ITI_onset	n/a	n/a	n/a
161.586085147	0.5878226109999815	4.116756549999991	0.5878226109999815	13	stim1	n/a	n/a	n/a
162.17390775799998	0.012184062000014819	3.5289339390000096	n/a	13	choice1	1	n/a	n/a
165.702841697	0.34897906399998463	7.366672901000013	0.34897906399998463	13	stim2	n/a	0	n/a
166.051820761	0.017693837000028	7.017693837000028	n/a	13	choice2	n/a	0	n/a
173.069514598	1.5	n/a	n/a	13	outcome	n/a	n/a	1
174.569514598	7.6002766279999925	10.166953249999992	n/a	13	ITI_onset	n/a	n/a	n/a
182.169791226	0.5320588719999941	2.5666766219999992	0.5320588719999941	14	stim1	n/a	n/a	n/a
182.701850098	0.017914228000008733	2.034617750000005	n/a	14	choice1	1	n/a	n/a
184.736467848	0.38340818199998467	3.4000693570000005	0.38340818199998467	14	stim2	n/a	0	n/a
185.11987602999997	0.016661175000015647	3.016661175000016	n/a	14	choice2	n/a	0	n/a
188.136537205	1.5	n/a	n/a	14	outcome	n/a	n/a	1
189.636537205	3.566740622000012	7.616846695999993	n/a	14	ITI_onset	n/a	n/a	n/a
193.203277827	0.5285576390000061	4.050106073999981	0.5285576390000061	15	stim1	n/a	n/a	n/a
193.731835466	0.004786366999993333	3.5215484349999753	n/a	15	choice1	1	n/a	n/a
197.25338390099998	0.5733371139999944	6.583332984999986	0.5733371139999944	15	stim2	n/a	1	n/a
197.82672101499998	0.009995870999991894	6.009995870999992	n/a	15	choice2	n/a	1	n/a
203.83671688599998	1.5	n/a	n/a	15	outcome	n/a	n/a	1
205.33671688599998	6.566919630000019	10.083622671000018	n/a	15	ITI_onset	n/a	n/a	n/a
211.90363651599998	0.49433158800003	3.516703041000001	0.49433158800003	16	stim1	n/a	n/a	n/a
212.39796810400003	0.005636812999960966	3.0223714529999706	n/a	16	choice1	1	n/a	n/a
215.420339557	0.43043904599998495	2.950038126999978	0.43043904599998495	16	stim2	n/a	0	n/a
215.85077860299998	0.01959908099999302	2.519599080999993	n/a	16	choice2	n/a	0	n/a
218.37037768399998	1.5	n/a	n/a	16	outcome	n/a	n/a	1
219.87037768399998	5.566823870000051	13.566957966000045	n/a	16	ITI_onset	n/a	n/a	n/a
225.437201554	0.4646583599999722	8.000134095999995	0.4646583599999722	17	stim1	n/a	n/a	n/a
225.901859914	0.01866811400000006	7.535475736000022	n/a	17	choice1	1	n/a	n/a
233.43733565000002	0.8495723859999562	5.866635526999977	0.8495723859999562	17	stim2	n/a	0	n/a
234.286908036	0.017063141000049655	5.017063141000021	n/a	17	choice2	n/a	0	n/a
239.303971177	1.5	n/a	n/a	17	outcome	n/a	n/a	0
240.803971177	7.0669743270000325	13.133781995999977	n/a	17	ITI_onset	n/a	n/a	n/a
247.87094550400002	0.5409136500000022	6.066807668999943	0.5409136500000022	18	stim1	n/a	n/a	n/a
248.411859154	0.009030898999946657	5.525894018999941	n/a	18	choice1	1	n/a	n/a
253.93775317299998	0.4952259850000264	4.499961344000011	0.4952259850000264	18	stim2	n/a	0	n/a
254.43297915799997	0.004735358999983873	4.004735358999984	n/a	18	choice2	n/a	0	n/a
258.43771451699996	1.5	n/a	n/a	18	outcome	n/a	n/a	0
259.93771451699996	3.0667725419999914	6.083514880000031	n/a	18	ITI_onset	n/a	n/a	n/a
263.004487059	0.48799606800003675	3.01674233800004	0.48799606800003675	19	stim1	n/a	n/a	n/a
263.492483127	0.011977785999944899	2.528746270000003	n/a	19	choice1	1	n/a	n/a
266.021229397	0.3673196379999863	4.883293013999995	0.3673196379999863	19	stim2	n/a	0	n/a
266.388549035	0.01597337600000901	4.515973376000009	n/a	19	choice2	n/a	0	n/a
270.904522411	1.5	n/a	n/a	19	outcome	n/a	n/a	0
272.404522411	6.566858195999987	12.683722536000015	n/a	19	ITI_onset	n/a	n/a	n/a
278.971380607	0.5835559440000215	6.1168643400000295	0.5835559440000215	20	stim1	n/a	n/a	n/a
279.554936551	0.01651777699997183	5.533308396000008	n/a	20	choice1	0	n/a	n/a
285.088244947	0.42165708999999335	2.933265953999944	0.42165708999999335	20	stim2	n/a	1	n/a
285.509902037	0.0116088639999507	2.5116088639999505	n/a	20	choice2	n/a	1	n/a
288.02151090099994	1.5	n/a	n/a	20	outcome	n/a	n/a	1
289.52151090099994	6.566846327000007	11.617058584999992	n/a	20	ITI_onset	n/a	n/a	n/a
296.08835722799995	0.5194407650000067	5.050212257999985	0.5194407650000067	21	stim1	n/a	n/a	n/a
296.60779799299996	0.013917675999982749	4.530771492999978	n/a	21	choice1	0	n/a	n/a
301.13856948599994	0.6879138150000362	5.699878448000003	0.6879138150000362	21	stim2	n/a	0	n/a
301.826483301	0.011964632999966852	5.011964632999967	n/a	21	choice2	n/a	0	n/a
306.838447934	1.5	n/a	n/a	21	outcome	n/a	n/a	1
308.338447934	4.066885144	7.300235277	n/a	21	ITI_onset	n/a	n/a	n/a
312.40533307799996	0.7122010970000411	3.233350133	0.7122010970000411	22	stim1	n/a	n/a	n/a
313.117534175	0.004477754999999888	2.521149035999959	n/a	22	choice1	0	n/a	n/a
315.63868321099994	0.6852851619999856	3.700083761000016	0.6852851619999856	22	stim2	n/a	1	n/a
316.32396837299996	0.014798599000030662	3.0147985990000308	n/a	22	choice2	n/a	1	n/a
319.338766972	1.5	n/a	n/a	22	outcome	n/a	n/a	0
320.838766972	4.566761473999999	10.750218546000019	n/a	22	ITI_onset	n/a	n/a	n/a
325.40552844599995	0.6615146930000046	6.183457072000019	0.6615146930000046	23	stim1	n/a	n/a	n/a
326.06704313899996	0.005190256000030786	5.521942379000015	n/a	23	choice1	0	n/a	n/a
331.588985518	0.49152392900001723	4.000011388999992	0.49152392900001723	23	stim2	n/a	1	n/a
332.080509447	0.008487459999974818	3.5084874599999747	n/a	23	choice2	n/a	1	n/a
335.58899690699997	1.5	n/a	n/a	23	outcome	n/a	n/a	1
337.08899690699997	5.066849053000042	8.83356596800004	n/a	23	ITI_onset	n/a	n/a	n/a
342.15584596	0.7366548749999492	3.7667169149999973	0.7366548749999492	24	stim1	n/a	n/a	n/a
342.89250083499996	0.013340232999995351	3.030062040000048	n/a	24	choice1	0	n/a	n/a
345.92256287500004	0.9891376419999287	4.500031759999984	0.9891376419999287	24	stim2	n/a	0	n/a
346.91170051699993	0.010894118000054732	3.5108941180000546	n/a	24	choice2	n/a	0	n/a
350.422594635	1.5	n/a	n/a	24	outcome	n/a	n/a	0
351.922594635	7.5668463259999985	12.967018981999951	n/a	24	ITI_onset	n/a	n/a	n/a
359.489440961	0.8745262959999963	5.400172655999952	0.8745262959999963	25	stim1	n/a	n/a	n/a
360.363967257	0.00880794099997729	4.525646359999955	n/a	25	choice1	0	n/a	n/a
364.88961361699995	0.5922358840000234	7.099963043000026	0.5922358840000234	25	stim2	n/a	1	n/a
365.481849501	0.007727159000001847	6.507727159000002	n/a	25	choice2	n/a	1	n/a
371.98957666	1.5	n/a	n/a	25	outcome	n/a	n/a	1
373.48957666	1.0	1.0	n/a	25	ITI_onset	n/a	n/a	n/a
