onset	duration	duration2fb	response_time	trial	event	choice1	state	reward
0.0	1.8229186619999964	8.366826970999995	1.8229186619999964	1	stim1	n/a	n/a	n/a
1.8229186619999957	0.027594091000002662	6.543908308999999	n/a	1	choice1	1	n/a	n/a
8.366826970999995	0.36178781600000004	7.383301109000004	0.36178781600000004	1	stim2	n/a	0	n/a
8.728614786999994	0.021513293000003614	7.0215132930000035	n/a	1	choice2	n/a	0	n/a
15.75012808	1.5	n/a	n/a	1	outcome	n/a	n/a	0
17.25012808	4.5668977720000035	11.167117714	n/a	1	ITI_onset	n/a	n/a	n/a
21.817025852000004	0.5669669049999938	6.600219941999996	0.5669669049999938	2	stim1	n/a	n/a	n/a
22.383992756999998	0.016401637000002665	6.033253037000002	n/a	2	choice1	0	n/a	n/a
28.417245794	0.5075848780000015	7.0165734260000026	0.5075848780000015	2	stim2	n/a	1	n/a
28.924830672000002	0.008988548000001173	6.508988548000001	n/a	2	choice2	n/a	1	n/a
35.433819220000004	1.5	n/a	n/a	2	outcome	n/a	n/a	1
36.933819220000004	6.5668995359999975	10.016947640999998	n/a	2	ITI_onset	n/a	n/a	n/a
43.500718756	0.4139277409999995	3.450048105000002	0.4139277409999995	3	stim1	n/a	n/a	n/a
43.91464649699999	0.019395679999994173	3.036120364000002	n/a	3	choice1	0	n/a	n/a
46.950766861000005	0.45799789500000043	2.966703174000002	0.45799789500000043	3	stim2	n/a	1	n/a
47.408764756	0.00870527900000161	2.5087052790000017	n/a	3	choice2	n/a	1	n/a
49.91747003500001	1.5	n/a	n/a	3	outcome	n/a	n/a	1
51.41747003500001	4.56676479999999	7.616831702999989	n/a	3	ITI_onset	n/a	n/a	n/a
55.984234834999995	0.5245001179999963	3.050066902999999	0.5245001179999963	4	stim1	n/a	n/a	n/a
56.50873495299999	0.008838412000011885	2.5255667850000028	n/a	4	choice1	0	n/a	n/a
59.034301737999996	0.5999924930000125	6.616677077	0.5999924930000125	4	stim2	n/a	1	n/a
59.63429423100001	0.016684583999987807	6.016684583999988	n/a	4	choice2	n/a	1	n/a
65.65097881499999	1.5	n/a	n/a	4	outcome	n/a	n/a	1
67.15097881499999	4.066860719000004	6.533573837999997	n/a	4	ITI_onset	n/a	n/a	n/a
71.21783953399999	0.4369199300000037	2.466713118999993	0.4369199300000037	5	stim1	n/a	n/a	n/a
71.65475946400001	0.013065296999993734	2.029793188999989	n/a	5	choice1	0	n/a	n/a
73.684552653	0.5942748420000135	2.6000210440000084	0.5942748420000135	5	stim2	n/a	0	n/a
74.278827495	0.0057462019999948094	2.0057462019999948	n/a	5	choice2	n/a	0	n/a
76.284573697	1.5	n/a	n/a	5	outcome	n/a	n/a	0
77.784573697	3.5667774720000014	6.466786422999998	n/a	5	ITI_onset	n/a	n/a	n/a
81.351351169	0.3729090540000034	2.9000089509999962	0.3729090540000034	6	stim1	n/a	n/a	n/a
81.724260223	0.010495032000006177	2.5270998969999927	n/a	6	choice1	0	n/a	n/a
84.25136012	0.6244619750000129	7.133398230999999	0.6244619750000129	6	stim2	n/a	0	n/a
84.875822095	0.008936255999986315	6.508936255999986	n/a	6	choice2	n/a	0	n/a
91.384758351	1.5	n/a	n/a	6	outcome	n/a	n/a	0
92.884758351	6.066834574000008	10.950281488000007	n/a	6	ITI_onset	n/a	n/a	n/a
98.951592925	0.3546666569999943	4.883446914	0.3546666569999943	7	stim1	n/a	n/a	n/a
99.306259582	0.012053167000005487	4.5287802570000055	n/a	7	choice1	0	n/a	n/a
103.835039839	0.4758498760000075	2.983340278000003	0.4758498760000075	7	stim2	n/a	1	n/a
104.31088971500002	0.007490401999995811	2.5074904019999957	n/a	7	choice2	n/a	1	n/a
106.818380117	1.5	n/a	n/a	7	outcome	n/a	n/a	1
108.318380117	4.066775225999998	6.550190573000014	n/a	7	ITI_onset	n/a	n/a	n/a
112.385155343	0.4484501909999963	2.4834153470000166	0.4484501909999963	8	stim1	n/a	n/a	n/a
112.833605534	0.018230206000007455	2.03496515600002	n/a	8	choice1	0	n/a	n/a
114.86857069000003	0.5342836119999702	4.050008676999976	0.5342836119999702	8	stim2	n/a	1	n/a
115.402854302	0.015725065000006	3.515725065000006	n/a	8	choice2	n/a	1	n/a
118.91857936699999	1.5	n/a	n/a	8	outcome	n/a	n/a	1
120.41857936699999	3.0667656019999994	10.083531027999998	n/a	8	ITI_onset	n/a	n/a	n/a
123.485344969	0.4932042940000247	7.016765425999998	0.4932042940000247	9	stim1	n/a	n/a	n/a
123.97854926300003	0.006776297999982489	6.523561131999974	n/a	9	choice1	0	n/a	n/a
130.502110395	0.430578960999992	2.450025006000011	0.430578960999992	9	stim2	n/a	1	n/a
130.93268935599997	0.019446045000018786	2.0194460450000187	n/a	9	choice2	n/a	1	n/a
132.952135401	1.5	n/a	n/a	9	outcome	n/a	n/a	1
134.452135401	5.067269100999983	8.666838455999997	n/a	9	ITI_onset	n/a	n/a	n/a
139.519404502	1.0738139390000143	3.599569355000014	1.0738139390000143	10	stim1	n/a	n/a	n/a
140.59321844099998	0.00906297299999278	2.525755416	n/a	10	choice1	0	n/a	n/a
143.118973857	0.5282377810000034	6.533388254999998	0.5282377810000034	10	stim2	n/a	0	n/a
143.647211638	0.005150473999994574	6.005150473999994	n/a	10	choice2	n/a	0	n/a
149.652362112	1.5	n/a	n/a	10	outcome	n/a	n/a	0
151.152362112	5.566877562000009	8.03365933200001	n/a	10	ITI_onset	n/a	n/a	n/a
156.719239674	0.4336394099999743	2.466781770000001	0.4336394099999743	11	stim1	n/a	n/a	n/a
157.15287908399998	0.016330417999997734	2.033142360000027	n/a	11	choice1	0	n/a	n/a
159.186021444	0.5485689190000121	3.0665642989999906	0.5485689190000121	11	stim2	n/a	1	n/a
159.73459036300002	0.017995379999978467	2.5179953799999786	n/a	11	choice2	n/a	1	n/a
162.252585743	1.5	n/a	n/a	11	outcome	n/a	n/a	1
163.752585743	6.566875797000015	10.783563010999991	n/a	11	ITI_onset	n/a	n/a	n/a
170.31946154	1.1871166619999858	4.216687213999976	1.1871166619999858	12	stim1	n/a	n/a	n/a
171.506578202	0.012890780999994604	3.0295705519999903	n/a	12	choice1	0	n/a	n/a
174.53614875399998	0.3865270920000039	2.9000488910000133	0.3865270920000039	12	stim2	n/a	1	n/a
174.92267584599998	0.013521799000009195	2.513521799000009	n/a	12	choice2	n/a	1	n/a
177.436197645	1.5	n/a	n/a	12	outcome	n/a	n/a	1
178.936197645	3.066746994999994	7.03347246499997	n/a	12	ITI_onset	n/a	n/a	n/a
182.00294463999998	0.9345881820000068	3.9667254699999757	0.9345881820000068	13	stim1	n/a	n/a	n/a
182.93753282199998	0.015454628999985289	3.032137287999969	n/a	13	choice1	0	n/a	n/a
185.96967010999995	0.3105788580000226	6.816689812000026	0.3105788580000226	13	stim2	n/a	1	n/a
186.280248968	0.006110954000003403	6.506110954000003	n/a	13	choice2	n/a	1	n/a
192.786359922	1.5	n/a	n/a	13	outcome	n/a	n/a	1
194.286359922	2.5668318479999725	7.466936075999984	n/a	13	ITI_onset	n/a	n/a	n/a
196.85319176999997	1.37351569	4.900104228000011	1.37351569	14	stim1	n/a	n/a	n/a
198.22670745999997	0.00984925800000201	3.526588538000011	n/a	14	choice1	0	n/a	n/a
201.75329599799997	0.3959336440000334	2.4166333840000154	0.3959336440000334	14	stim2	n/a	1	n/a
202.149229642	0.020699739999981828	2.0206997399999818	n/a	14	choice2	n/a	1	n/a
204.169929382	1.5	n/a	n/a	14	outcome	n/a	n/a	1
205.669929382	2.6001084629999824	5.966948586999992	n/a	14	ITI_onset	n/a	n/a	n/a
208.27003784499996	0.3398401569999987	3.366840124000009	0.3398401569999987	15	stim1	n/a	n/a	n/a
208.60987800199996	0.010239033000019845	3.0269999670000107	n/a	15	choice1	0	n/a	n/a
211.63687796899998	0.5459553460000025	8.066579377000016	0.5459553460000025	15	stim2	n/a	1	n/a
212.18283331499998	0.020624031000013927	7.520624031000014	n/a	15	choice2	n/a	1	n/a
219.703457346	1.5	n/a	n/a	15	outcome	n/a	n/a	1
221.203457346	4.5668623230000085	7.867034048000002	n/a	15	ITI_onset	n/a	n/a	n/a
225.770319669	0.2633430320000043	3.3001717249999927	0.2633430320000043	16	stim1	n/a	n/a	n/a
226.033662701	0.02002124299999559	3.0368286929999884	n/a	16	choice1	0	n/a	n/a
229.070491394	0.40731184499996015	2.91649928899997	0.40731184499996015	16	stim2	n/a	1	n/a
229.47780323899997	0.009187444000010146	2.50918744400001	n/a	16	choice2	n/a	1	n/a
231.98699068299996	1.5	n/a	n/a	16	outcome	n/a	n/a	0
233.48699068299996	3.066866654000012	10.433676944000036	n/a	16	ITI_onset	n/a	n/a	n/a
236.55385733699998	0.33873820300001534	7.366810290000023	0.33873820300001534	17	stim1	n/a	n/a	n/a
236.89259554	0.011223573999974179	7.028072087000008	n/a	17	choice1	1	n/a	n/a
243.92066762700003	0.3500191999999806	3.3666617579999727	0.3500191999999806	17	stim2	n/a	0	n/a
244.270686827	0.01664255799999228	3.0166425579999925	n/a	17	choice2	n/a	0	n/a
247.287329385	1.5	n/a	n/a	17	outcome	n/a	n/a	1
248.787329385	2.066724379000021	6.63345774100005	n/a	17	ITI_onset	n/a	n/a	n/a
250.85405376399999	1.5381989990000147	4.566733362000028	1.5381989990000147	18	stim1	n/a	n/a	n/a
252.39225276300002	0.011883142999955453	3.028534363000013	n/a	18	choice1	1	n/a	n/a
255.42078712600002	0.4889087569999392	2.5000425059999687	0.4889087569999392	18	stim2	n/a	0	n/a
255.90969588299996	0.011133749000029638	2.0111337490000296	n/a	18	choice2	n/a	0	n/a
257.92082963200005	1.5	n/a	n/a	18	outcome	n/a	n/a	1
259.42082963200005	3.0667551760000062	10.93365384600003	n/a	18	ITI_onset	n/a	n/a	n/a
262.487584808	0.3439297389999847	7.866898670000024	0.3439297389999847	19	stim1	n/a	n/a	n/a
262.83151454700004	0.006050323000003118	7.522968931000039	n/a	19	choice1	1	n/a	n/a
270.3544834780001	0.4321925949999713	4.449943201999995	0.4321925949999713	19	stim2	n/a	0	n/a
270.786676073	0.017750607000023594	4.017750607000024	n/a	19	choice2	n/a	0	n/a
274.80442668000006	1.5	n/a	n/a	19	outcome	n/a	n/a	1
276.30442668000006	7.566985351999989	12.400232228999958	n/a	19	ITI_onset	n/a	n/a	n/a
283.871412032	0.3094342370000086	4.833246876999969	0.3094342370000086	20	stim1	n/a	n/a	n/a
284.180846269	0.007100627999927383	4.52381263999996	n/a	20	choice1	1	n/a	n/a
288.704658909	0.7961541629999992	5.816721411000006	0.7961541629999992	20	stim2	n/a	1	n/a
289.500813072	0.020567248000006658	5.020567248000007	n/a	20	choice2	n/a	1	n/a
294.52138032	1.5	n/a	n/a	20	outcome	n/a	n/a	0
296.02138032	4.067089451999985	6.4502834129999975	n/a	20	ITI_onset	n/a	n/a	n/a
300.088469772	0.3540147870000219	2.383193961000012	0.3540147870000219	21	stim1	n/a	n/a	n/a
300.44248455900004	0.012361458000028505	2.02917917399999	n/a	21	choice1	1	n/a	n/a
302.471663733	0.31689063400001033	2.3332332430000533	0.31689063400001033	21	stim2	n/a	0	n/a
302.788554367	0.01634260900004301	2.016342609000043	n/a	21	choice2	n/a	0	n/a
304.80489697600007	1.5	n/a	n/a	21	outcome	n/a	n/a	1
306.30489697600007	3.5667707349999693	12.233584648999967	n/a	21	ITI_onset	n/a	n/a	n/a
309.87166771100004	1.1430060859999502	8.666813913999999	1.1430060859999502	22	stim1	n/a	n/a	n/a
311.014673797	0.007012087000068277	7.523807828000048	n/a	22	choice1	1	n/a	n/a
318.53848162500003	0.9052941609999979	4.416728180999984	0.9052941609999979	22	stim2	n/a	1	n/a
319.443775786	0.011434019999986049	3.511434019999986	n/a	22	choice2	n/a	1	n/a
322.955209806	1.5	n/a	n/a	22	outcome	n/a	n/a	0
324.455209806	8.066840670000005	10.500262255000008	n/a	22	ITI_onset	n/a	n/a	n/a
332.522050476	0.41209307399997486	2.4334215850000036	0.41209307399997486	23	stim1	n/a	n/a	n/a
332.93414355	0.0045967700000037436	2.021328511000029	n/a	23	choice1	1	n/a	n/a
334.955472061	0.3926775059999782	4.900000769999984	0.3926775059999782	23	stim2	n/a	0	n/a
335.348149567	0.00732326400000602	4.507323264000006	n/a	23	choice2	n/a	0	n/a
339.855472831	1.5	n/a	n/a	23	outcome	n/a	n/a	1
341.355472831	4.566835055999982	7.000170666999998	n/a	23	ITI_onset	n/a	n/a	n/a
345.922307887	0.40882282100000883	2.433335611000017	0.40882282100000883	24	stim1	n/a	n/a	n/a
346.331130708	0.007782653000031132	2.024512790000008	n/a	24	choice1	1	n/a	n/a
348.355643498	0.38898283000005174	3.40002098000003	0.38898283000005174	24	stim2	n/a	0	n/a
348.74462632800004	0.011038149999978486	3.0110381499999783	n/a	24	choice2	n/a	0	n/a
351.755664478	1.5	n/a	n/a	24	outcome	n/a	n/a	1
353.255664478	3.5667585449999897	6.21679997599998	n/a	24	ITI_onset	n/a	n/a	n/a
356.822423023	0.6167835830000112	2.6500414309999907	0.6167835830000112	25	stim1	n/a	n/a	n/a
357.439206606	0.01663229199999478	2.0332578479999794	n/a	25	choice1	1	n/a	n/a
359.47246445400003	0.6237382460000226	5.633395024000027	0.6237382460000226	25	stim2	n/a	1	n/a
360.09620270000005	0.009656778000004125	5.0096567780000045	n/a	25	choice2	n/a	1	n/a
365.105859478	1.5	n/a	n/a	25	outcome	n/a	n/a	1
366.605859478	1.0	1.0	n/a	25	ITI_onset	n/a	n/a	n/a
