onset	duration	duration2fb	response_time	trial	event	choice1	state	reward
0.0	0.7043474110000024	2.7334220030000034	0.7043474110000024	1	stim1	n/a	n/a	n/a
0.7043474110000041	0.012620664999998553	2.029074592000001	n/a	1	choice1	1	n/a	n/a
2.7334220030000083	0.3637511239999949	5.8833473039999955	0.3637511239999949	1	stim2	n/a	0	n/a
3.097173126999998	0.01959618000000046	5.519596180000001	n/a	1	choice2	n/a	0	n/a
8.616769306999998	1.5	n/a	n/a	1	outcome	n/a	n/a	0
10.116769306999998	3.566803617000005	6.916952101000002	n/a	1	ITI_onset	n/a	n/a	n/a
13.683572924000003	0.32261502299999845	3.3501484839999978	0.32261502299999845	2	stim1	n/a	n/a	n/a
14.006187947	0.010730500999998185	3.027533460999999	n/a	2	choice1	0	n/a	n/a
17.033721408000005	0.6451710180000009	4.1665906360000005	0.6451710180000009	2	stim2	n/a	0	n/a
17.678892426000004	0.0214196179999999	3.521419618	n/a	2	choice2	n/a	0	n/a
21.200312044	1.5	n/a	n/a	2	outcome	n/a	n/a	0
22.700312044	3.566828960999992	11.333613072999993	n/a	2	ITI_onset	n/a	n/a	n/a
26.267141004999992	0.24220924600000582	7.766784112000002	0.24220924600000582	3	stim1	n/a	n/a	n/a
26.509350251	0.0077640470000042115	7.524574865999996	n/a	3	choice1	1	n/a	n/a
34.033925116999995	0.3019156040000089	7.81666029900001	0.3019156040000089	3	stim2	n/a	1	n/a
34.33584072100001	0.014744694999993953	7.514744695000001	n/a	3	choice2	n/a	1	n/a
41.850585416	1.5	n/a	n/a	3	outcome	n/a	n/a	0
43.350585416	4.5669473359999975	11.317030182999995	n/a	3	ITI_onset	n/a	n/a	n/a
47.917532752	3.217720517000009	6.750082846999998	3.217720517000009	4	stim1	n/a	n/a	n/a
51.13525326900002	0.015643580999996628	3.532362329999989	n/a	4	choice1	0	n/a	n/a
54.667615599	0.3652534379999997	2.8833145820000063	0.3652534379999997	4	stim2	n/a	0	n/a
55.032869037	0.018061144000006607	2.5180611440000065	n/a	4	choice2	n/a	0	n/a
57.55093018100001	1.5	n/a	n/a	4	outcome	n/a	n/a	1
59.05093018100001	2.066746995999987	6.233537331	n/a	4	ITI_onset	n/a	n/a	n/a
61.11767717699999	2.1346347620000015	4.166790335000012	2.1346347620000015	5	stim1	n/a	n/a	n/a
63.252311938999995	0.015400414000003367	2.032155573000011	n/a	5	choice1	0	n/a	n/a
65.284467512	0.37875149700000477	4.899948479999992	0.37875149700000477	5	stim2	n/a	0	n/a
65.66321900900002	0.021196982999987086	4.521196982999987	n/a	5	choice2	n/a	0	n/a
70.184415992	1.5	n/a	n/a	5	outcome	n/a	n/a	0
71.684415992	8.566946374000006	12.883657680000004	n/a	5	ITI_onset	n/a	n/a	n/a
80.25136236600001	0.2834929159999883	4.3167113059999975	0.2834929159999883	6	stim1	n/a	n/a	n/a
80.534855282	0.016522899000003234	4.033218390000009	n/a	6	choice1	1	n/a	n/a
84.568073672	0.35921530599999824	5.86664250999999	0.35921530599999824	6	stim2	n/a	1	n/a
84.927288978	0.0074272039999923435	5.507427203999993	n/a	6	choice2	n/a	1	n/a
90.43471618199999	1.5	n/a	n/a	6	outcome	n/a	n/a	0
91.93471618199999	4.066907076000003	11.300386983000005	n/a	6	ITI_onset	n/a	n/a	n/a
96.001623258	4.198627032000019	7.233479907	4.198627032000019	7	stim1	n/a	n/a	n/a
100.20025029000003	0.018052802999998677	3.034852874999982	n/a	7	choice1	0	n/a	n/a
103.23510316500001	0.3682413870000164	4.383246894000011	0.3682413870000164	7	stim2	n/a	0	n/a
103.60334455200002	0.015005506999994395	4.015005506999994	n/a	7	choice2	n/a	0	n/a
107.61835005900001	1.5	n/a	n/a	7	outcome	n/a	n/a	0
109.11835005900001	4.066878362999996	15.733737189999985	n/a	7	ITI_onset	n/a	n/a	n/a
113.18522842200001	5.631085892000002	11.66685882699999	5.631085892000002	8	stim1	n/a	n/a	n/a
118.816314314	0.01897671299998183	6.0357729349999865	n/a	8	choice1	1	n/a	n/a
124.85208724900001	0.30715077000000746	3.816655487000011	0.30715077000000746	8	stim2	n/a	1	n/a
125.159238019	0.00950471700000344	3.5095047170000035	n/a	8	choice2	n/a	1	n/a
128.668742736	1.5	n/a	n/a	8	outcome	n/a	n/a	0
130.168742736	2.5668029749999985	5.416826506000012	n/a	8	ITI_onset	n/a	n/a	n/a
132.735545711	0.3142828370000061	2.8500235310000135	0.3142828370000061	9	stim1	n/a	n/a	n/a
133.049828548	0.01900718899999629	2.5357406940000073	n/a	9	choice1	1	n/a	n/a
135.58556924200002	0.3536923810000008	4.3666556629999835	0.3536923810000008	9	stim2	n/a	1	n/a
135.939261623	0.012963281999982429	4.0129632819999825	n/a	9	choice2	n/a	1	n/a
139.95222490499998	1.5	n/a	n/a	9	outcome	n/a	n/a	1
141.45222490499998	5.5668660139999995	10.816992008000001	n/a	9	ITI_onset	n/a	n/a	n/a
147.019090919	0.22424209700000938	5.250125994000002	0.22424209700000938	10	stim1	n/a	n/a	n/a
147.243333016	0.009087675000017044	5.025883896999993	n/a	10	choice1	0	n/a	n/a
152.26921691299998	0.2679965830000001	7.283267392999988	0.2679965830000001	10	stim2	n/a	0	n/a
152.537213496	0.01527080999998725	7.015270809999987	n/a	10	choice2	n/a	0	n/a
159.552484306	1.5	n/a	n/a	10	outcome	n/a	n/a	0
161.052484306	3.0668960080000107	11.383661850000005	n/a	10	ITI_onset	n/a	n/a	n/a
164.119380314	0.2803535490000213	8.316765841999993	0.2803535490000213	11	stim1	n/a	n/a	n/a
164.399733863	0.019590727000002518	8.036412292999971	n/a	11	choice1	1	n/a	n/a
172.436146156	0.5490645580000127	2.5666698430000108	0.5490645580000127	11	stim2	n/a	1	n/a
172.985210714	0.01760528499999782	2.017605284999998	n/a	11	choice2	n/a	1	n/a
175.002815999	1.5	n/a	n/a	11	outcome	n/a	n/a	0
176.502815999	2.566871467000019	5.650201350999996	n/a	11	ITI_onset	n/a	n/a	n/a
179.069687466	0.5473851599999762	3.083329883999977	0.5473851599999762	12	stim1	n/a	n/a	n/a
179.61707262599998	0.019199990000022808	2.535944724000001	n/a	12	choice1	1	n/a	n/a
182.15301735000003	1.2127682990000175	3.233326565000025	1.2127682990000175	12	stim2	n/a	0	n/a
183.36578564900003	0.020558266000007278	2.020558266000007	n/a	12	choice2	n/a	0	n/a
185.386343915	1.5	n/a	n/a	12	outcome	n/a	n/a	0
186.886343915	5.566848047999956	11.883597849999962	n/a	12	ITI_onset	n/a	n/a	n/a
192.453191963	0.28491471000001184	6.316749802000006	0.28491471000001184	13	stim1	n/a	n/a	n/a
192.738106673	0.0150536270000448	6.0318350919999935	n/a	13	choice1	1	n/a	n/a
198.769941765	0.7752635470000386	4.783322410000052	0.7752635470000386	13	stim2	n/a	1	n/a
199.545205312	0.008058863000012934	4.008058863000013	n/a	13	choice2	n/a	1	n/a
203.55326417500004	1.5	n/a	n/a	13	outcome	n/a	n/a	1
205.05326417500004	3.0668251109999547	7.566951345999958	n/a	13	ITI_onset	n/a	n/a	n/a
208.120089286	0.47266623800000523	4.500126235000003	0.47266623800000523	14	stim1	n/a	n/a	n/a
208.59275552399998	0.010645167999988188	4.0274599969999985	n/a	14	choice1	1	n/a	n/a
212.62021552099998	0.39309871900000143	3.899968690000009	0.39309871900000143	14	stim2	n/a	1	n/a
213.01331424	0.006869971000007353	3.5068699710000075	n/a	14	choice2	n/a	1	n/a
216.52018421100001	1.5	n/a	n/a	14	outcome	n/a	n/a	1
218.02018421100001	5.066846443999995	11.800275183999998	n/a	14	ITI_onset	n/a	n/a	n/a
223.08703065499998	0.20219370700002764	6.733428740000003	0.20219370700002764	15	stim1	n/a	n/a	n/a
223.28922436200003	0.01443608399995719	6.531235032999976	n/a	15	choice1	1	n/a	n/a
229.820459395	0.06932175099998131	7.583299728999991	0.06932175099998131	15	stim2	n/a	1	n/a
229.88978114599996	0.013977978000009899	7.5139779780000095	n/a	15	choice2	n/a	1	n/a
237.40375912399998	1.5	n/a	n/a	15	outcome	n/a	n/a	1
238.90375912399998	2.5669001789999895	5.350258839000016	n/a	15	ITI_onset	n/a	n/a	n/a
241.470659303	0.26061557300004645	2.7833586600000273	0.26061557300004645	16	stim1	n/a	n/a	n/a
241.73127487600004	0.006012790000007953	2.5227430869999807	n/a	16	choice1	1	n/a	n/a
244.25401796300002	0.24227372800000013	4.249944420999964	0.24227372800000013	16	stim2	n/a	1	n/a
244.496291691	0.007670692999963649	4.007670692999963	n/a	16	choice2	n/a	1	n/a
248.50396238399998	1.5	n/a	n/a	16	outcome	n/a	n/a	1
250.00396238399998	4.066872911000043	8.800319615000044	n/a	16	ITI_onset	n/a	n/a	n/a
254.070835295	0.19734221999999135	4.733446704000002	0.19734221999999135	17	stim1	n/a	n/a	n/a
254.268177515	0.01933408599998802	4.536104484000011	n/a	17	choice1	1	n/a	n/a
258.804281999	0.35049591199995483	5.36667394899996	0.35049591199995483	17	stim2	n/a	1	n/a
259.15477791099994	0.016178037000005134	5.016178037000005	n/a	17	choice2	n/a	1	n/a
264.17095594799997	1.5	n/a	n/a	17	outcome	n/a	n/a	0
265.67095594799997	5.066874514000025	8.216865740000037	n/a	17	ITI_onset	n/a	n/a	n/a
270.737830462	0.12741447499999775	3.149991226000013	0.12741447499999775	18	stim1	n/a	n/a	n/a
270.865244937	0.005909169999998994	3.022576751000015	n/a	18	choice1	0	n/a	n/a
273.887821688	0.3292886639999924	2.8499611349999903	0.3292886639999924	18	stim2	n/a	0	n/a
274.217110352	0.02067247099999804	2.520672470999998	n/a	18	choice2	n/a	0	n/a
276.737782823	1.5	n/a	n/a	18	outcome	n/a	n/a	1
278.237782823	3.066848689999955	8.966907043999992	n/a	18	ITI_onset	n/a	n/a	n/a
281.30463151299995	0.3735766420000582	5.900058354000037	0.3735766420000582	19	stim1	n/a	n/a	n/a
281.678208155	0.009725749999983236	5.5264817119999785	n/a	19	choice1	0	n/a	n/a
287.20468986699996	0.25045674100000176	6.266658197000041	0.25045674100000176	19	stim2	n/a	0	n/a
287.455146608	0.01620145600003889	6.016201456000039	n/a	19	choice2	n/a	0	n/a
293.47134806400004	1.5	n/a	n/a	19	outcome	n/a	n/a	1
294.97134806400004	2.066871626999986	6.566939476999978	n/a	19	ITI_onset	n/a	n/a	n/a
297.038219691	0.4723438329999917	4.500067849999992	0.4723438329999917	20	stim1	n/a	n/a	n/a
297.510563524	0.011013448000012431	4.027724017000001	n/a	20	choice1	0	n/a	n/a
301.538287541	0.4219798670000164	2.4333141170000308	0.4219798670000164	20	stim2	n/a	0	n/a
301.960267408	0.011334250000014435	2.0113342500000146	n/a	20	choice2	n/a	0	n/a
303.97160165800005	1.5	n/a	n/a	20	outcome	n/a	n/a	0
305.47160165800005	5.566845160999917	8.400247947999974	n/a	20	ITI_onset	n/a	n/a	n/a
311.03844681899994	0.2968090800000355	2.833402787000057	0.2968090800000355	21	stim1	n/a	n/a	n/a
311.335255899	0.019885865000018384	2.536593707000022	n/a	21	choice1	1	n/a	n/a
313.871849606	0.5344039129999583	3.049963764999935	0.5344039129999583	21	stim2	n/a	0	n/a
314.40625351899996	0.015559851999976672	2.515559851999977	n/a	21	choice2	n/a	0	n/a
316.9218133709999	1.5	n/a	n/a	21	outcome	n/a	n/a	1
318.4218133709999	4.566858795000066	9.900284519000037	n/a	21	ITI_onset	n/a	n/a	n/a
322.988672166	0.298426884000015	5.333425723999971	0.298426884000015	22	stim1	n/a	n/a	n/a
323.28709905000005	0.018147439999971537	5.034998839999957	n/a	22	choice1	0	n/a	n/a
328.32209789	0.00023354400001699105	3.5166364640000394	0.00023354400001699105	22	stim2	n/a	0	n/a
328.322331434	0.01640292000002228	3.516402920000022	n/a	22	choice2	n/a	0	n/a
331.838734354	1.5	n/a	n/a	22	outcome	n/a	n/a	1
333.338734354	5.6001936359999815	8.133522220999993	n/a	22	ITI_onset	n/a	n/a	n/a
338.93892799	0.4952230999999447	2.5333285850000102	0.4952230999999447	23	stim1	n/a	n/a	n/a
339.43415108999994	0.02144432000006782	2.0381054850000657	n/a	23	choice1	0	n/a	n/a
341.472256575	0.336871456999972	2.3499752500000177	0.336871456999972	23	stim2	n/a	0	n/a
341.809128032	0.013103793000045699	2.0131037930000457	n/a	23	choice2	n/a	0	n/a
343.822231825	1.5	n/a	n/a	23	outcome	n/a	n/a	1
345.322231825	2.0668244689999264	6.033684354999976	n/a	23	ITI_onset	n/a	n/a	n/a
347.38905629399994	0.44310306500003205	3.9668598860000492	0.44310306500003205	24	stim1	n/a	n/a	n/a
347.832159359	0.006858101999969221	3.5237568210000174	n/a	24	choice1	0	n/a	n/a
351.35591618	0.35114232699997955	2.3665260589999964	0.35114232699997955	24	stim2	n/a	0	n/a
351.707058507	0.015383732000016607	2.0153837320000165	n/a	24	choice2	n/a	0	n/a
353.722442239	1.5	n/a	n/a	24	outcome	n/a	n/a	0
355.222442239	7.066827036000031	11.350249696000013	n/a	24	ITI_onset	n/a	n/a	n/a
362.28926927500004	0.2618644549999735	4.283422659999982	0.2618644549999735	25	stim1	n/a	n/a	n/a
362.55113373	0.004787004999991041	4.021558205000009	n/a	25	choice1	1	n/a	n/a
366.572691935	0.9349667279999703	2.9500213179999846	0.9349667279999703	25	stim2	n/a	0	n/a
367.507658663	0.015054590000014287	2.0150545900000143	n/a	25	choice2	n/a	0	n/a
369.522713253	1.5	n/a	n/a	25	outcome	n/a	n/a	1
371.022713253	1.0	1.0	n/a	25	ITI_onset	n/a	n/a	n/a
