onset	duration	duration2fb	response_time	trial	event	choice1	state	reward
0.0	1.0567533760000005	3.6000319510000045	1.0567533760000005	1	stim1	n/a	n/a	n/a
1.0567533760000032	0.026975265000000945	2.543278575000004	n/a	1	choice1	0	n/a	n/a
3.6000319510000054	0.6986243059999906	3.716632196999999	0.6986243059999906	1	stim2	n/a	0	n/a
4.2986562569999975	0.018007891000008384	3.0180078910000083	n/a	1	choice2	n/a	0	n/a
7.316664148000001	1.5	n/a	n/a	1	outcome	n/a	n/a	0
8.816664148000001	4.566901621999991	9.400279385999994	n/a	1	ITI_onset	n/a	n/a	n/a
13.38356576999999	0.8007040960000086	4.833377764000004	0.8007040960000086	2	stim1	n/a	n/a	n/a
14.184269866000001	0.016387112999997042	4.032673667999996	n/a	2	choice1	1	n/a	n/a
18.216943533999995	0.7202457090000025	8.733348540000007	0.7202457090000025	2	stim2	n/a	1	n/a
18.937189243	0.01310283100000379	8.013102831000003	n/a	2	choice2	n/a	1	n/a
26.95029207400001	1.5	n/a	n/a	2	outcome	n/a	n/a	0
28.45029207400001	2.5668714659999967	6.750287037000001	n/a	2	ITI_onset	n/a	n/a	n/a
31.017163540000006	0.6585304900000046	4.183415571000005	0.6585304900000046	3	stim1	n/a	n/a	n/a
31.67569403000001	0.00814291399999638	3.5248850810000003	n/a	3	choice1	1	n/a	n/a
35.200579111	0.7090494029999973	4.216640216999993	0.7090494029999973	3	stim2	n/a	1	n/a
35.909628514	0.007590813999995589	3.5075908139999954	n/a	3	choice2	n/a	1	n/a
39.417219327999995	1.5	n/a	n/a	3	outcome	n/a	n/a	0
40.917219327999995	2.566813882000002	9.33361980900001	n/a	3	ITI_onset	n/a	n/a	n/a
43.48403321	0.7325523089999915	6.766805927000009	0.7325523089999915	4	stim1	n/a	n/a	n/a
44.216585519	0.017474398000005747	6.034253618000017	n/a	4	choice1	1	n/a	n/a
50.25083913700001	0.5877715469999821	6.099981264999995	0.5877715469999821	4	stim2	n/a	1	n/a
50.838610683999995	0.012209718000012798	5.512209718000013	n/a	4	choice2	n/a	1	n/a
56.350820402000004	1.5	n/a	n/a	4	outcome	n/a	n/a	0
57.850820402000004	5.066867937999996	10.766951570999998	n/a	4	ITI_onset	n/a	n/a	n/a
62.917688340000005	0.6675661949999921	5.700083633000002	0.6675661949999921	5	stim1	n/a	n/a	n/a
63.585254535	0.015775110000002316	5.03251743800001	n/a	5	choice1	1	n/a	n/a
68.617771973	0.6039235990000016	2.6166587909999945	0.6039235990000016	5	stim2	n/a	1	n/a
69.22169557200002	0.012735191999992821	2.012735191999993	n/a	5	choice2	n/a	1	n/a
71.234430764	1.5	n/a	n/a	5	outcome	n/a	n/a	0
72.734430764	8.066835697000002	13.000353684000016	n/a	5	ITI_onset	n/a	n/a	n/a
80.80126646100001	1.3969602100000047	4.933517987000013	1.3969602100000047	6	stim1	n/a	n/a	n/a
82.19822667100001	0.01978609600001073	3.536557777000009	n/a	6	choice1	1	n/a	n/a
85.734784448	0.5833666169999778	4.599974848999991	0.5833666169999778	6	stim2	n/a	1	n/a
86.318151065	0.016608232000013233	4.016608232000014	n/a	6	choice2	n/a	1	n/a
90.334759297	1.5	n/a	n/a	6	outcome	n/a	n/a	0
91.834759297	5.066807787999976	14.283665989000001	n/a	6	ITI_onset	n/a	n/a	n/a
96.90156708499998	1.1921237370000162	9.216858201000024	1.1921237370000162	7	stim1	n/a	n/a	n/a
98.09369082200001	0.00789429199998267	8.024734464000009	n/a	7	choice1	1	n/a	n/a
106.11842528600002	0.7288005319999938	4.249970566000004	0.7288005319999938	7	stim2	n/a	1	n/a
106.847225818	0.021170034000009764	3.5211700340000096	n/a	7	choice2	n/a	1	n/a
110.36839585200002	1.5	n/a	n/a	7	outcome	n/a	n/a	1
111.86839585200002	3.0668387449999863	7.566874194000004	n/a	7	ITI_onset	n/a	n/a	n/a
114.935234597	0.9694827619999996	4.500035449000017	0.9694827619999996	8	stim1	n/a	n/a	n/a
115.90471735899999	0.013799291000002996	3.5305526870000175	n/a	8	choice1	1	n/a	n/a
119.43527004600003	0.5759483939999772	8.083357312999986	0.5759483939999772	8	stim2	n/a	1	n/a
120.01121844	0.007408919000008609	7.507408919000008	n/a	8	choice2	n/a	1	n/a
127.51862735899999	1.5	n/a	n/a	8	outcome	n/a	n/a	1
129.018627359	4.06688173199998	10.250304681999987	n/a	8	ITI_onset	n/a	n/a	n/a
133.08550909099998	1.6531695710000058	6.183422950000008	1.6531695710000058	9	stim1	n/a	n/a	n/a
134.73867866199998	0.013497417000005953	4.530253379000001	n/a	9	choice1	1	n/a	n/a
139.268932041	0.6879217140000256	2.700016264000005	0.6879217140000256	9	stim2	n/a	0	n/a
139.95685375500003	0.01209454999997979	2.0120945499999796	n/a	9	choice2	n/a	0	n/a
141.968948305	1.5	n/a	n/a	9	outcome	n/a	n/a	1
143.468948305	4.0667843690000005	7.166843429	n/a	9	ITI_onset	n/a	n/a	n/a
147.535732674	1.0767528049999964	3.1000590599999995	1.0767528049999964	10	stim1	n/a	n/a	n/a
148.612485479	0.006559436000010464	2.023306255000003	n/a	10	choice1	1	n/a	n/a
150.635791734	0.6119481360000208	3.6166405049999883	0.6119481360000208	10	stim2	n/a	1	n/a
151.24773987000003	0.004692368999967584	3.0046923689999674	n/a	10	choice2	n/a	1	n/a
154.25243223899997	1.5	n/a	n/a	10	outcome	n/a	n/a	0
155.75243223899997	2.566945572000026	6.466887154000026	n/a	10	ITI_onset	n/a	n/a	n/a
158.319377811	0.8751721499999985	3.8999415819999994	0.8751721499999985	11	stim1	n/a	n/a	n/a
159.194549961	0.008052126999973552	3.024769432000001	n/a	11	choice1	1	n/a	n/a
162.219319393	0.5612585569999937	3.0666708050000016	0.5612585569999937	11	stim2	n/a	1	n/a
162.78057795	0.005412248000007822	2.505412248000008	n/a	11	choice2	n/a	1	n/a
165.285990198	1.5	n/a	n/a	11	outcome	n/a	n/a	0
166.785990198	3.0667880580000055	7.750199618999992	n/a	11	ITI_onset	n/a	n/a	n/a
169.85277825600002	1.1537471739999892	4.6834115609999865	1.1537471739999892	12	stim1	n/a	n/a	n/a
171.00652543	0.012878910999977962	3.5296643869999973	n/a	12	choice1	0	n/a	n/a
174.536189817	0.8489969650000275	4.366675713000033	0.8489969650000275	12	stim2	n/a	0	n/a
175.38518678200003	0.017678748000005726	3.5176787480000056	n/a	12	choice2	n/a	0	n/a
178.90286553000004	1.5	n/a	n/a	12	outcome	n/a	n/a	1
180.40286553000004	7.066862804999953	10.866942940999987	n/a	12	ITI_onset	n/a	n/a	n/a
187.46972833499999	0.2699053540000168	3.8000801360000334	0.2699053540000168	13	stim1	n/a	n/a	n/a
187.73963368900002	0.013435822999977972	3.5301747820000164	n/a	13	choice1	0	n/a	n/a
191.26980847100003	0.544638134000008	4.049993599999987	0.544638134000008	13	stim2	n/a	1	n/a
191.81444660500003	0.00535546599997906	3.5053554659999793	n/a	13	choice2	n/a	1	n/a
195.319802071	1.5	n/a	n/a	13	outcome	n/a	n/a	1
196.819802071	3.0668297630000163	8.233540859999978	n/a	13	ITI_onset	n/a	n/a	n/a
199.88663183400004	1.1439755489999661	5.166711096999963	1.1439755489999661	14	stim1	n/a	n/a	n/a
201.030607383	0.006007015000010142	4.022735547999997	n/a	14	choice1	0	n/a	n/a
205.053342931	0.4677589330000046	5.483347979000013	0.4677589330000046	14	stim2	n/a	0	n/a
205.521101864	0.015589046000008239	5.0155890460000085	n/a	14	choice2	n/a	0	n/a
210.53669091	1.5	n/a	n/a	14	outcome	n/a	n/a	1
212.03669091	3.0669001780000107	6.46693880199999	n/a	14	ITI_onset	n/a	n/a	n/a
215.10359108800003	0.8778980029999802	3.4000386239999787	0.8778980029999802	15	stim1	n/a	n/a	n/a
215.98148909100001	0.005358032999996794	2.522140620999999	n/a	15	choice1	0	n/a	n/a
218.50362971200002	0.5158593209999963	4.033279503000027	0.5158593209999963	15	stim2	n/a	0	n/a
219.019489033	0.017420182000030763	3.5174201820000306	n/a	15	choice2	n/a	0	n/a
222.53690921500004	1.5	n/a	n/a	15	outcome	n/a	n/a	1
224.03690921500004	6.066860558999993	10.516925665999995	n/a	15	ITI_onset	n/a	n/a	n/a
230.103769774	0.4273568269999814	4.450065107000002	0.4273568269999814	16	stim1	n/a	n/a	n/a
230.53112660099998	0.0060092610000283455	4.022708280000021	n/a	16	choice1	0	n/a	n/a
234.553834881	0.5146158929999801	3.5333487960000056	0.5146158929999801	16	stim2	n/a	0	n/a
235.06845077399998	0.018732903000025544	3.0187329030000254	n/a	16	choice2	n/a	0	n/a
238.08718367700004	1.5	n/a	n/a	16	outcome	n/a	n/a	1
239.58718367700004	3.0667840480000015	5.366818790999998	n/a	16	ITI_onset	n/a	n/a	n/a
242.65396772500003	0.26755163100000934	2.3000347429999963	0.26755163100000934	17	stim1	n/a	n/a	n/a
242.92151935600003	0.015800453000003472	2.032483111999987	n/a	17	choice1	0	n/a	n/a
244.954002468	0.4906385209999862	3.5000733030000117	0.4906385209999862	17	stim2	n/a	0	n/a
245.444640989	0.009434782000025734	3.009434782000026	n/a	17	choice2	n/a	0	n/a
248.45407577100002	1.5	n/a	n/a	17	outcome	n/a	n/a	1
249.95407577100002	4.566765601999999	13.400230945999967	n/a	17	ITI_onset	n/a	n/a	n/a
254.52084137300005	0.8042540889999945	8.833465343999967	0.8042540889999945	18	stim1	n/a	n/a	n/a
255.32509546200004	0.012432034999947064	8.029211254999973	n/a	18	choice1	0	n/a	n/a
263.354306717	0.46012449000001654	4.966636125999968	0.46012449000001654	18	stim2	n/a	0	n/a
263.81443120700004	0.006511635999951977	4.506511635999952	n/a	18	choice2	n/a	0	n/a
268.32094284299995	1.5	n/a	n/a	18	outcome	n/a	n/a	1
269.82094284299995	7.10022202700004	12.933683841000079	n/a	18	ITI_onset	n/a	n/a	n/a
276.92116487	0.31035269199998583	5.833461814000039	0.31035269199998583	19	stim1	n/a	n/a	n/a
277.23151756199996	0.006351556000008713	5.5231091220000526	n/a	19	choice1	0	n/a	n/a
282.7546266840001	0.4968944779999438	5.016676402999961	0.4968944779999438	19	stim2	n/a	1	n/a
283.251521162	0.01978192500001751	4.519781925000017	n/a	19	choice2	n/a	1	n/a
287.771303087	1.5	n/a	n/a	19	outcome	n/a	n/a	1
289.271303087	3.0668557479999725	9.616941738999973	n/a	19	ITI_onset	n/a	n/a	n/a
292.338158835	1.0253847290000413	6.5500859909999996	1.0253847290000413	20	stim1	n/a	n/a	n/a
293.363543564	0.007923484999977517	5.524701261999959	n/a	20	choice1	0	n/a	n/a
298.888244826	0.6432378650000319	2.6499419820000183	0.6432378650000319	20	stim2	n/a	0	n/a
299.531482691	0.006704116999986582	2.0067041169999866	n/a	20	choice2	n/a	0	n/a
301.538186808	1.5	n/a	n/a	20	outcome	n/a	n/a	0
303.038186808	4.0668478880000185	8.766922217999992	n/a	20	ITI_onset	n/a	n/a	n/a
307.105034696	0.6734343029999873	4.700074329999974	0.6734343029999873	21	stim1	n/a	n/a	n/a
307.778468999	0.009900586000003386	4.026640026999987	n/a	21	choice1	1	n/a	n/a
311.80510902599997	0.3774342840000172	6.383367835000041	0.3774342840000172	21	stim2	n/a	1	n/a
312.18254331	0.005933551000023726	6.005933551000024	n/a	21	choice2	n/a	1	n/a
318.188476861	1.5	n/a	n/a	21	outcome	n/a	n/a	0
319.688476861	2.5668159679999807	7.833549232999969	n/a	21	ITI_onset	n/a	n/a	n/a
322.255292829	0.7368330889999634	5.266733264999988	0.7368330889999634	22	stim1	n/a	n/a	n/a
322.992125918	0.013150951000046917	4.529900176000025	n/a	22	choice1	0	n/a	n/a
327.522026094	0.4796000500000082	4.999999840000004	0.4796000500000082	22	stim2	n/a	0	n/a
328.001626144	0.020399789999995845	4.5203997899999955	n/a	22	choice2	n/a	0	n/a
332.522025934	1.5	n/a	n/a	22	outcome	n/a	n/a	0
334.022025934	3.5668257520000335	6.550207575000008	n/a	22	ITI_onset	n/a	n/a	n/a
337.58885168600005	0.9467626129999408	2.9833818229999745	0.9467626129999408	23	stim1	n/a	n/a	n/a
338.535614299	0.019956762000045272	2.0366192100000333	n/a	23	choice1	0	n/a	n/a
340.572233509	0.6871800199999707	6.70004609899997	0.6871800199999707	23	stim2	n/a	1	n/a
341.25941352899997	0.012866078999999446	6.012866078999999	n/a	23	choice2	n/a	1	n/a
347.27227960799996	1.5	n/a	n/a	23	outcome	n/a	n/a	1
348.77227960799996	7.066855908000027	9.883583094000002	n/a	23	ITI_onset	n/a	n/a	n/a
355.839135516	0.7959507749999757	2.8167271859999747	0.7959507749999757	24	stim1	n/a	n/a	n/a
356.635086291	0.004053009999974165	2.020776410999999	n/a	24	choice1	0	n/a	n/a
358.655862702	0.5508215889999992	2.566710584000044	0.5508215889999992	24	stim2	n/a	0	n/a
359.206684291	0.015888995000044814	2.015888995000045	n/a	24	choice2	n/a	0	n/a
361.222573286	1.5	n/a	n/a	24	outcome	n/a	n/a	0
362.722573286	8.566864087999972	10.916828431000003	n/a	24	ITI_onset	n/a	n/a	n/a
371.289437374	0.3156353370000143	2.3499643430000288	0.3156353370000143	25	stim1	n/a	n/a	n/a
371.605072711	0.017694467999972402	2.0343290060000143	n/a	25	choice1	1	n/a	n/a
373.63940171700006	0.8192522170000011	8.333419788999949	0.8192522170000011	25	stim2	n/a	1	n/a
374.45865393400004	0.01416757199994754	7.5141675719999474	n/a	25	choice2	n/a	1	n/a
381.972821506	1.5	n/a	n/a	25	outcome	n/a	n/a	1
383.472821506	1.0	1.0	n/a	25	ITI_onset	n/a	n/a	n/a
