onset	duration	duration2fb	response_time	trial	event	choice1	state	reward
0.0	0.48509410199999914	7.516831349999997	0.48509410199999914	1	stim1	n/a	n/a	n/a
0.4850941019999979	0.015351331000001665	7.031737247999998	n/a	1	choice1	0	n/a	n/a
7.516831349999997	0.9752203030000055	7.483359046000005	0.9752203030000055	1	stim2	n/a	0	n/a
8.492051653	0.008138742999999522	6.508138743	n/a	1	choice2	n/a	0	n/a
15.000190396000004	1.5	n/a	n/a	1	outcome	n/a	n/a	1
16.500190396000004	4.066895526000001	9.233604377999997	n/a	1	ITI_onset	n/a	n/a	n/a
20.567085922	0.631570624	5.166708851999996	0.631570624	2	stim1	n/a	n/a	n/a
21.198656546	0.018477223999994748	4.5351382279999966	n/a	2	choice1	0	n/a	n/a
25.733794774	0.6541252390000009	4.666705484000006	0.6541252390000009	2	stim2	n/a	0	n/a
26.387920013000002	0.012580245000004651	4.012580245000005	n/a	2	choice2	n/a	0	n/a
30.400500258000005	1.5	n/a	n/a	2	outcome	n/a	n/a	1
31.900500258000005	4.5668182129999915	9.066888629000001	n/a	2	ITI_onset	n/a	n/a	n/a
36.467318471	0.47371879000001355	4.50007041600001	0.47371879000001355	3	stim1	n/a	n/a	n/a
36.941037261000005	0.00961924399999407	4.026351625999996	n/a	3	choice1	0	n/a	n/a
40.967388887	0.3712655859999868	3.8832885979999845	0.3712655859999868	3	stim2	n/a	0	n/a
41.33865447299999	0.01202301200000511	3.512023011999998	n/a	3	choice2	n/a	0	n/a
44.85067748499999	1.5	n/a	n/a	3	outcome	n/a	n/a	1
46.35067748499999	3.5668642490000058	10.683648312999997	n/a	3	ITI_onset	n/a	n/a	n/a
49.917541734	0.592126111000005	7.116784063999992	0.592126111000005	4	stim1	n/a	n/a	n/a
50.509667844999996	0.007843926000001375	6.524657952999987	n/a	4	choice1	0	n/a	n/a
57.03432579799998	0.7387194040000177	3.2500260650000126	0.7387194040000177	4	stim2	n/a	1	n/a
57.773045202000006	0.011306660999995074	2.511306660999995	n/a	4	choice2	n/a	1	n/a
60.284351863	1.5	n/a	n/a	4	outcome	n/a	n/a	0
61.784351863	8.066799928000007	11.383583414000007	n/a	4	ITI_onset	n/a	n/a	n/a
69.851151791	0.7899501759999985	3.3167834860000003	0.7899501759999985	5	stim1	n/a	n/a	n/a
70.641101967	0.010147924999997485	2.526833310000002	n/a	5	choice1	1	n/a	n/a
73.167935277	1.172041540999984	5.183314838999999	1.172041540999984	5	stim2	n/a	1	n/a
74.33997681799998	0.01127329800001462	4.011273298000015	n/a	5	choice2	n/a	1	n/a
78.351250116	1.5	n/a	n/a	5	outcome	n/a	n/a	0
79.851250116	4.566860879999993	11.11698408399998	n/a	5	ITI_onset	n/a	n/a	n/a
84.418110996	2.0275527090000107	6.550123203999989	2.0275527090000107	6	stim1	n/a	n/a	n/a
86.445663705	0.005771225000004051	4.522570494999978	n/a	6	choice1	0	n/a	n/a
90.96823419999998	0.5887920180000074	4.099974208000014	0.5887920180000074	6	stim2	n/a	1	n/a
91.55702621799999	0.011182190000006812	3.5111821900000066	n/a	6	choice2	n/a	1	n/a
95.068208408	1.5	n/a	n/a	6	outcome	n/a	n/a	0
96.568208408	4.066870825000006	9.033575763	n/a	6	ITI_onset	n/a	n/a	n/a
100.635079233	0.9350780459999806	4.966704937999995	0.9350780459999806	7	stim1	n/a	n/a	n/a
101.57015727899999	0.01487846900000295	4.0316268920000145	n/a	7	choice1	0	n/a	n/a
105.60178417099999	1.2725064149999963	7.283352084000013	1.2725064149999963	7	stim2	n/a	1	n/a
106.874290586	0.010845669000016642	6.010845669000017	n/a	7	choice2	n/a	1	n/a
112.88513625500002	1.5	n/a	n/a	7	outcome	n/a	n/a	0
114.38513625500002	4.066857190999988	10.050283605000004	n/a	7	ITI_onset	n/a	n/a	n/a
118.45199344599999	0.4579764009999926	5.983426414000016	0.4579764009999926	8	stim1	n/a	n/a	n/a
118.90996984699999	0.008694692999997642	5.5254500130000235	n/a	8	choice1	1	n/a	n/a
124.43541986000002	0.47122487599999296	5.483308839999983	0.47122487599999296	8	stim2	n/a	1	n/a
124.906644736	0.012083963999990373	5.012083963999991	n/a	8	choice2	n/a	1	n/a
129.9187287	1.5	n/a	n/a	8	outcome	n/a	n/a	1
131.4187287	3.066820619999984	7.366934921999986	n/a	8	ITI_onset	n/a	n/a	n/a
134.48554932	0.7684266180000268	4.300114302000002	0.7684266180000268	9	stim1	n/a	n/a	n/a
135.253975938	0.0149920319999801	3.531687683999975	n/a	9	choice1	1	n/a	n/a
138.785663622	1.6241915390000212	7.633329900000011	1.6241915390000212	9	stim2	n/a	1	n/a
140.409855161	0.009138360999990255	6.00913836099999	n/a	9	choice2	n/a	1	n/a
146.418993522	1.5	n/a	n/a	9	outcome	n/a	n/a	0
147.918993522	4.066859758000006	7.166917213000008	n/a	9	ITI_onset	n/a	n/a	n/a
151.98585328000001	1.0791382869999797	3.1000574550000017	1.0791382869999797	10	stim1	n/a	n/a	n/a
153.064991567	0.004247417000035057	2.020919168000022	n/a	10	choice1	0	n/a	n/a
155.085910735	0.3817323879999749	5.900067497000011	0.3817323879999749	10	stim2	n/a	0	n/a
155.467643123	0.01833510900003603	5.518335109000036	n/a	10	choice2	n/a	0	n/a
160.985978232	1.5	n/a	n/a	10	outcome	n/a	n/a	0
162.485978232	2.566778273999982	5.083627267999982	n/a	10	ITI_onset	n/a	n/a	n/a
165.052756506	0.49219857999999655	2.516848994	0.49219857999999655	11	stim1	n/a	n/a	n/a
165.544955086	0.0078038260000175795	2.0246504140000035	n/a	11	choice1	0	n/a	n/a
167.5696055	0.3859403459999885	5.3998429349999935	0.3859403459999885	11	stim2	n/a	0	n/a
167.95554584599998	0.013902589000004809	5.013902589000005	n/a	11	choice2	n/a	0	n/a
172.969448435	1.5	n/a	n/a	11	outcome	n/a	n/a	1
174.469448435	5.0668863840000125	9.283590280000004	n/a	11	ITI_onset	n/a	n/a	n/a
179.536334819	0.6860463069999824	4.216703895999991	0.6860463069999824	12	stim1	n/a	n/a	n/a
180.222381126	0.01397316600001068	3.5306575890000094	n/a	12	choice1	0	n/a	n/a
183.753038715	1.6734939719999966	7.183414768999995	1.6734939719999966	12	stim2	n/a	0	n/a
185.426532687	0.009920796999998857	5.509920796999999	n/a	12	choice2	n/a	0	n/a
190.936453484	1.5	n/a	n/a	12	outcome	n/a	n/a	1
192.436453484	2.5667917469999812	6.8668726850000095	n/a	12	ITI_onset	n/a	n/a	n/a
195.00324523099997	0.7657036519999965	4.300080938000028	0.7657036519999965	13	stim1	n/a	n/a	n/a
195.76894888299998	0.01763544000001275	3.5343772860000318	n/a	13	choice1	0	n/a	n/a
199.303326169	0.5344629409999762	2.549994242000015	0.5344629409999762	13	stim2	n/a	1	n/a
199.83778911	0.015531301000039093	2.0155313010000393	n/a	13	choice2	n/a	1	n/a
201.85332041100003	1.5	n/a	n/a	13	outcome	n/a	n/a	1
203.35332041100003	3.0667449099999793	6.583492211000005	n/a	13	ITI_onset	n/a	n/a	n/a
206.42006532099998	0.48506779700002517	3.516747301000025	0.48506779700002517	14	stim1	n/a	n/a	n/a
206.905133118	0.014988504000008106	3.0316795039999995	n/a	14	choice1	0	n/a	n/a
209.93681262200002	0.7263290739999793	3.7333623329999974	0.7263290739999793	14	stim2	n/a	1	n/a
210.663141696	0.0070332590000180065	3.007033259000018	n/a	14	choice2	n/a	1	n/a
213.67017495500002	1.5	n/a	n/a	14	outcome	n/a	n/a	0
215.17017495500002	2.5667922289999843	8.916866285999946	n/a	14	ITI_onset	n/a	n/a	n/a
217.736967184	0.8260086250000168	6.350074056999961	0.8260086250000168	15	stim1	n/a	n/a	n/a
218.56297580900002	0.007369138999958523	5.5240654319999445	n/a	15	choice1	1	n/a	n/a
224.08704124099995	0.51717909900003	2.533361949000042	0.51717909900003	15	stim2	n/a	1	n/a
224.60422033999998	0.016182850000011968	2.016182850000012	n/a	15	choice2	n/a	1	n/a
226.62040319	1.5	n/a	n/a	15	outcome	n/a	n/a	1
228.12040319	3.066762553999986	11.566900017999957	n/a	15	ITI_onset	n/a	n/a	n/a
231.187165744	0.46384900000001655	8.50013746399997	0.46384900000001655	16	stim1	n/a	n/a	n/a
231.651014744	0.01948550399998203	8.036288463999954	n/a	16	choice1	1	n/a	n/a
239.68730320799997	1.3696737670000294	6.383309449000051	1.3696737670000294	16	stim2	n/a	1	n/a
241.05697697499997	0.013635682000021916	5.013635682000022	n/a	16	choice2	n/a	1	n/a
246.070612657	1.5	n/a	n/a	16	outcome	n/a	n/a	1
247.570612657	3.566872108999989	10.51698709999997	n/a	16	ITI_onset	n/a	n/a	n/a
251.13748476600003	0.9145816950000007	6.95011499099998	0.9145816950000007	17	stim1	n/a	n/a	n/a
252.052066461	0.018785513999988325	6.035533295999979	n/a	17	choice1	1	n/a	n/a
258.087599757	0.4299299780000001	4.950009607999993	0.4299299780000001	17	stim2	n/a	1	n/a
258.517529735	0.020079629999992903	4.520079629999993	n/a	17	choice2	n/a	1	n/a
263.037609365	1.5	n/a	n/a	17	outcome	n/a	n/a	1
264.537609365	4.100167491000029	6.650205682000029	n/a	17	ITI_onset	n/a	n/a	n/a
268.637776856	0.523233591999975	2.5500381909999996	0.523233591999975	18	stim1	n/a	n/a	n/a
269.161010448	0.010099164000013844	2.0268045990000245	n/a	18	choice1	1	n/a	n/a
271.187815047	0.43717689199995946	2.45001698700001	0.43717689199995946	18	stim2	n/a	1	n/a
271.624991939	0.012840095000050497	2.0128400950000507	n/a	18	choice2	n/a	1	n/a
273.63783203400004	1.5	n/a	n/a	18	outcome	n/a	n/a	0
275.13783203400004	8.566896167999948	13.933618557999958	n/a	18	ITI_onset	n/a	n/a	n/a
283.704728202	1.3360684900000341	5.36672239000001	1.3360684900000341	19	stim1	n/a	n/a	n/a
285.040796692	0.01391895000002114	4.030653899999976	n/a	19	choice1	0	n/a	n/a
289.071450592	1.6200705179999932	8.133391815000039	1.6200705179999932	19	stim2	n/a	1	n/a
290.69152111	0.013321297000045888	6.513321297000046	n/a	19	choice2	n/a	1	n/a
297.20484240700006	1.5	n/a	n/a	19	outcome	n/a	n/a	1
298.70484240700006	2.5668052209999876	7.866880063999968	n/a	19	ITI_onset	n/a	n/a	n/a
301.27164762800004	0.7684885329999961	5.30007484299998	0.7684885329999961	20	stim1	n/a	n/a	n/a
302.040136161	0.014877185999997891	4.531586309999984	n/a	20	choice1	0	n/a	n/a
306.571722471	0.4670380909999949	3.9833418829999863	0.4670380909999949	20	stim2	n/a	0	n/a
307.038760562	0.016303791999991518	3.5163037919999915	n/a	20	choice2	n/a	0	n/a
310.55506435399997	1.5	n/a	n/a	20	outcome	n/a	n/a	0
312.05506435399997	6.066875958000018	13.950308756000013	n/a	20	ITI_onset	n/a	n/a	n/a
318.121940312	0.35168287800002146	7.883432797999994	0.35168287800002146	21	stim1	n/a	n/a	n/a
318.47362319	0.014991391999996268	7.531749919999973	n/a	21	choice1	1	n/a	n/a
326.00537311	0.39269835700001565	3.9000187350000486	0.39269835700001565	21	stim2	n/a	1	n/a
326.398071467	0.007320378000033088	3.507320378000033	n/a	21	choice2	n/a	1	n/a
329.90539184500005	1.5	n/a	n/a	21	outcome	n/a	n/a	1
331.40539184500005	4.066849971999996	11.567003796999982	n/a	21	ITI_onset	n/a	n/a	n/a
335.47224181700005	0.4654603880000068	7.500153824999987	0.4654603880000068	22	stim1	n/a	n/a	n/a
335.93770220500005	0.017802577999944332	7.03469343699998	n/a	22	choice1	1	n/a	n/a
342.97239564200004	2.097102228999953	7.116632325000014	2.097102228999953	22	stim2	n/a	1	n/a
345.069497871	0.019530096000060438	5.019530096000061	n/a	22	choice2	n/a	1	n/a
350.08902796700005	1.5	n/a	n/a	22	outcome	n/a	n/a	0
351.58902796700005	4.06691461399995	12.450296564999968	n/a	22	ITI_onset	n/a	n/a	n/a
355.655942581	4.360496909000037	8.383381951000018	4.360496909000037	23	stim1	n/a	n/a	n/a
360.01643949000004	0.006163565999944694	4.02288504199998	n/a	23	choice1	0	n/a	n/a
364.039324532	0.4704498190000304	5.983342523999978	0.4704498190000304	23	stim2	n/a	0	n/a
364.50977435100003	0.012892704999947454	5.512892704999947	n/a	23	choice2	n/a	0	n/a
370.022667056	1.5	n/a	n/a	23	outcome	n/a	n/a	0
371.522667056	2.566833130999992	10.100277847000049	n/a	23	ITI_onset	n/a	n/a	n/a
374.089500187	0.5119965460000094	7.533444716000056	0.5119965460000094	24	stim1	n/a	n/a	n/a
374.601496733	0.004687236000027042	7.021448170000047	n/a	24	choice1	1	n/a	n/a
381.622944903	0.35608812899998155	6.366683252000017	0.35608812899998155	24	stim2	n/a	1	n/a
381.979033032	0.010595123000035529	6.010595123000035	n/a	24	choice2	n/a	1	n/a
387.98962815500005	1.5	n/a	n/a	24	outcome	n/a	n/a	0
389.48962815500005	4.56694300499995	8.933639409999945	n/a	24	ITI_onset	n/a	n/a	n/a
394.05657116000003	0.33623979900003176	4.3666964049999955	0.33623979900003176	25	stim1	n/a	n/a	n/a
394.39281095900003	0.013727751999977045	4.030456605999963	n/a	25	choice1	0	n/a	n/a
398.423267565	0.35275852700002724	3.3666370570000144	0.35275852700002724	25	stim2	n/a	0	n/a
398.77602609200005	0.013878529999987222	3.013878529999987	n/a	25	choice2	n/a	0	n/a
401.789904622	1.5	n/a	n/a	25	outcome	n/a	n/a	1
403.289904622	1.0	1.0	n/a	25	ITI_onset	n/a	n/a	n/a
