onset	duration	duration2fb	response_time	trial	event	choice1	state	reward
0.0	1.134318131	3.1667213640000007	1.134318131	1	stim1	n/a	n/a	n/a
1.1343181310000006	0.016143245999999636	2.032403233000001	n/a	1	choice1	0	n/a	n/a
3.1667213640000007	0.669403747999997	3.183358306999995	0.669403747999997	1	stim2	n/a	0	n/a
3.836125111999994	0.01395455899999797	2.513954558999998	n/a	1	choice2	n/a	0	n/a
6.3500796709999925	1.5	n/a	n/a	1	outcome	n/a	n/a	0
7.8500796709999925	8.066845161000005	17.200327282	n/a	1	ITI_onset	n/a	n/a	n/a
15.916924832000003	1.108904849999999	9.133482120999993	1.108904849999999	2	stim1	n/a	n/a	n/a
17.025829681999998	0.0077650089999951885	8.024577270999995	n/a	2	choice1	1	n/a	n/a
25.050406952999996	0.38199416300000305	3.400008149000001	0.38199416300000305	2	stim2	n/a	1	n/a
25.432401115999998	0.018013985999998112	3.018013985999998	n/a	2	choice2	n/a	1	n/a
28.450415101999997	1.5	n/a	n/a	2	outcome	n/a	n/a	1
29.950415101999997	2.566786454000001	5.966823475000004	n/a	2	ITI_onset	n/a	n/a	n/a
32.51720155599999	1.3689635119999948	3.4000370210000037	1.3689635119999948	3	stim1	n/a	n/a	n/a
33.886165068	0.01435877000000619	2.031073509000009	n/a	3	choice1	1	n/a	n/a
35.91723857699999	2.170901410999999	4.683317083999995	2.170901410999999	3	stim2	n/a	1	n/a
38.088139987999995	0.012415672999995877	2.512415672999996	n/a	3	choice2	n/a	1	n/a
40.60055566099999	1.5	n/a	n/a	3	outcome	n/a	n/a	1
42.10055566099999	3.066843878	6.100211762000006	n/a	3	ITI_onset	n/a	n/a	n/a
45.16739953899999	1.0009120399999956	3.0333678840000067	1.0009120399999956	4	stim1	n/a	n/a	n/a
46.16831157899999	0.015773185000012745	2.032455844000011	n/a	4	choice1	1	n/a	n/a
48.200767423	0.7286827969999867	4.233359767000001	0.7286827969999867	4	stim2	n/a	0	n/a
48.92945021999998	0.00467697000001499	3.504676970000015	n/a	4	choice2	n/a	0	n/a
52.43412719	1.5	n/a	n/a	4	outcome	n/a	n/a	1
53.93412719	3.0667983239999885	8.033579291999995	n/a	4	ITI_onset	n/a	n/a	n/a
57.00092551399999	0.9143853640000016	4.966780968000006	0.9143853640000016	5	stim1	n/a	n/a	n/a
57.915310877999985	0.03569690500000434	4.052395604000004	n/a	5	choice1	0	n/a	n/a
61.967706482	0.5324909719999996	5.049952858000005	0.5324909719999996	5	stim2	n/a	0	n/a
62.50019745399999	0.017461886000004596	4.517461886000005	n/a	5	choice2	n/a	0	n/a
67.01765934	1.5	n/a	n/a	5	outcome	n/a	n/a	1
68.51765934	3.566850774999999	11.700308514999996	n/a	5	ITI_onset	n/a	n/a	n/a
72.084510115	0.5997015259999898	8.133457739999997	0.5997015259999898	6	stim1	n/a	n/a	n/a
72.68421164099999	0.016962077000003774	7.533756214000008	n/a	6	choice1	0	n/a	n/a
80.217967855	0.8468626700000023	2.866698491000003	0.8468626700000023	6	stim2	n/a	1	n/a
81.06483052499999	0.01983582100000058	2.0198358210000005	n/a	6	choice2	n/a	1	n/a
83.08466634599999	1.5	n/a	n/a	6	outcome	n/a	n/a	0
84.58466634599999	5.566790624000001	8.63351548399999	n/a	6	ITI_onset	n/a	n/a	n/a
90.15145697	0.5445948260000004	3.0667248599999875	0.5445948260000004	7	stim1	n/a	n/a	n/a
90.69605179599999	0.005438552999999956	2.522130033999987	n/a	7	choice1	1	n/a	n/a
93.21818182999999	0.7411745010000014	2.7500174039999985	0.7411745010000014	7	stim2	n/a	1	n/a
93.95935633099998	0.008842902999997022	2.008842902999997	n/a	7	choice2	n/a	1	n/a
95.96819923399998	1.5	n/a	n/a	7	outcome	n/a	n/a	1
97.46819923399998	2.566732879999996	6.833481544000009	n/a	7	ITI_onset	n/a	n/a	n/a
100.03493211399999	1.7362213200000114	4.266748664000013	1.7362213200000114	8	stim1	n/a	n/a	n/a
101.77115343399998	0.013828483999997842	2.530527344000002	n/a	8	choice1	1	n/a	n/a
104.30168077799999	0.6016147880000062	4.616664244000014	0.6016147880000062	8	stim2	n/a	1	n/a
104.903295566	0.015049456000007922	4.015049456000008	n/a	8	choice2	n/a	1	n/a
108.91834502200001	1.5	n/a	n/a	8	outcome	n/a	n/a	1
110.41834502200001	3.5668336119999875	6.4002206799999986	n/a	8	ITI_onset	n/a	n/a	n/a
113.985178634	0.29905757999999333	2.833387068000011	0.29905757999999333	9	stim1	n/a	n/a	n/a
114.28423621399998	0.017612664000014773	2.534329488000018	n/a	9	choice1	1	n/a	n/a
116.818565702	0.49265187299999524	5.500018765999994	0.49265187299999524	9	stim2	n/a	1	n/a
117.311217575	0.007366892999998527	5.007366892999999	n/a	9	choice2	n/a	1	n/a
122.31858446800001	1.5	n/a	n/a	9	outcome	n/a	n/a	1
123.81858446800001	7.566843877999985	10.70027980399999	n/a	9	ITI_onset	n/a	n/a	n/a
131.385428346	0.6078495720000064	3.1334359260000055	0.6078495720000064	10	stim1	n/a	n/a	n/a
131.993277918	0.008883965999993962	2.525586353999999	n/a	10	choice1	1	n/a	n/a
134.518864272	2.0114199040000096	4.516674958999996	2.0114199040000096	10	stim2	n/a	0	n/a
136.530284176	0.0052550549999868966	2.505255054999987	n/a	10	choice2	n/a	0	n/a
139.03553923099997	1.5	n/a	n/a	10	outcome	n/a	n/a	0
140.53553923099997	3.0668204590000094	7.4835285900000015	n/a	10	ITI_onset	n/a	n/a	n/a
143.60235969	0.8847901110000094	4.416708130999992	0.8847901110000094	11	stim1	n/a	n/a	n/a
144.48714980100002	0.015214990000007674	3.5319180199999827	n/a	11	choice1	0	n/a	n/a
148.019067821	0.5492169379999977	5.066722775000002	0.5492169379999977	11	stim2	n/a	0	n/a
148.568284759	0.01750583700000425	4.517505837000004	n/a	11	choice2	n/a	0	n/a
153.08579059599998	1.5	n/a	n/a	11	outcome	n/a	n/a	0
154.58579059599998	4.0668178919999916	7.600206467999989	n/a	11	ITI_onset	n/a	n/a	n/a
158.65260848799997	0.9966780969999963	3.5333885759999974	0.9966780969999963	12	stim1	n/a	n/a	n/a
159.64928658499997	0.019983710000029534	2.5367104790000012	n/a	12	choice1	0	n/a	n/a
162.185997064	1.012783312000014	3.0333120639999978	1.012783312000014	12	stim2	n/a	0	n/a
163.198780376	0.0205287519999838	2.0205287519999837	n/a	12	choice2	n/a	0	n/a
165.219309128	1.5	n/a	n/a	12	outcome	n/a	n/a	0
166.719309128	7.066856549000018	15.650316840000015	n/a	12	ITI_onset	n/a	n/a	n/a
173.78616567699999	0.5492162970000063	8.583460290999996	0.5492162970000063	13	stim1	n/a	n/a	n/a
174.335381974	0.017477926999999907	8.03424399399999	n/a	13	choice1	1	n/a	n/a
182.36962596799998	1.2291737840000132	6.250045794000005	1.2291737840000132	13	stim2	n/a	1	n/a
183.59879975200002	0.02087200999999186	5.020872009999992	n/a	13	choice2	n/a	1	n/a
188.619671762	1.5	n/a	n/a	13	outcome	n/a	n/a	1
190.119671762	4.566868900000001	7.566839386999986	n/a	13	ITI_onset	n/a	n/a	n/a
194.686540662	0.47865881800002535	2.999970486999984	0.47865881800002535	14	stim1	n/a	n/a	n/a
195.16519948	0.004654834999993909	2.521311668999959	n/a	14	choice1	1	n/a	n/a
197.68651114899998	0.47827642099998774	3.9833726790000217	0.47827642099998774	14	stim2	n/a	1	n/a
198.16478756999996	0.0050962580000341404	3.505096258000034	n/a	14	choice2	n/a	1	n/a
201.669883828	1.5	n/a	n/a	14	outcome	n/a	n/a	0
203.169883828	5.0668018529999825	8.633601941	n/a	14	ITI_onset	n/a	n/a	n/a
208.23668568099998	0.541383278000023	3.566800088000018	0.541383278000023	15	stim1	n/a	n/a	n/a
208.77806895900002	0.008663896000012756	3.025416809999995	n/a	15	choice1	0	n/a	n/a
211.80348576900002	1.4876431940000039	4.999984761999978	1.4876431940000039	15	stim2	n/a	1	n/a
213.291128963	0.012341567999974358	3.5123415679999743	n/a	15	choice2	n/a	1	n/a
216.803470531	1.5	n/a	n/a	15	outcome	n/a	n/a	0
218.303470531	4.566821582000033	10.750253513999981	n/a	15	ITI_onset	n/a	n/a	n/a
222.870292113	1.6584737079999758	6.183431931999949	1.6584737079999758	16	stim1	n/a	n/a	n/a
224.52876582099998	0.008242040999990423	4.524958223999973	n/a	16	choice1	1	n/a	n/a
229.05372404499997	0.7472925120000437	2.7666859460000124	0.7472925120000437	16	stim2	n/a	1	n/a
229.80101655700003	0.019393433999968693	2.019393433999969	n/a	16	choice2	n/a	1	n/a
231.82040999099996	1.5	n/a	n/a	16	outcome	n/a	n/a	1
233.32040999100002	2.5667688109999873	6.750155509000003	n/a	16	ITI_onset	n/a	n/a	n/a
235.887178802	1.1530535999999847	4.1833866980000165	1.1530535999999847	17	stim1	n/a	n/a	n/a
237.04023240199996	0.01365332700003637	3.030333098000032	n/a	17	choice1	1	n/a	n/a
240.0705655	0.6005981669999891	6.616706590999965	0.6005981669999891	17	stim2	n/a	1	n/a
240.67116366699997	0.016108423999976366	6.0161084239999765	n/a	17	choice2	n/a	1	n/a
246.68727209099995	1.5	n/a	n/a	17	outcome	n/a	n/a	0
248.18727209099995	4.066838584000012	8.116900032999984	n/a	17	ITI_onset	n/a	n/a	n/a
252.254110675	0.5126192220000084	4.050061448999972	0.5126192220000084	18	stim1	n/a	n/a	n/a
252.766729897	0.020715137999970466	3.5374422269999632	n/a	18	choice1	0	n/a	n/a
256.30417212399993	1.2208383910000558	3.2333567200000397	1.2208383910000558	18	stim2	n/a	1	n/a
257.525010515	0.012518328999984079	2.012518328999984	n/a	18	choice2	n/a	1	n/a
259.537528844	1.5	n/a	n/a	18	outcome	n/a	n/a	1
261.037528844	8.116871482999995	10.583592621999967	n/a	18	ITI_onset	n/a	n/a	n/a
269.154400327	0.43872540300001855	2.466721138999972	0.43872540300001855	19	stim1	n/a	n/a	n/a
269.59312573	0.011252124999999068	2.0279957359999536	n/a	19	choice1	0	n/a	n/a
271.621121466	1.0269986840000493	5.533323613000044	1.0269986840000493	19	stim2	n/a	0	n/a
272.64812015	0.006324928999994882	4.5063249289999945	n/a	19	choice2	n/a	0	n/a
277.154445079	1.5	n/a	n/a	19	outcome	n/a	n/a	1
278.654445079	4.066841631999996	13.25029858599999	n/a	19	ITI_onset	n/a	n/a	n/a
282.721286711	1.1614630999999935	9.183456953999993	1.1614630999999935	20	stim1	n/a	n/a	n/a
283.882749811	0.005202122999995481	8.021993854	n/a	20	choice1	0	n/a	n/a
291.904743665	0.641355401000008	3.1500064650000423	0.641355401000008	20	stim2	n/a	0	n/a
292.546099066	0.00865106400003424	2.508651064000034	n/a	20	choice2	n/a	0	n/a
295.05475013000006	1.5	n/a	n/a	20	outcome	n/a	n/a	1
296.55475013000006	2.0668223829999914	7.066858954999945	n/a	20	ITI_onset	n/a	n/a	n/a
298.62157251300005	1.4655457210000022	5.000036571999954	1.4655457210000022	21	stim1	n/a	n/a	n/a
300.08711823400006	0.017791028999956323	3.5344908509999513	n/a	21	choice1	0	n/a	n/a
303.621609085	0.4175659539999906	5.433370899000031	0.4175659539999906	21	stim2	n/a	0	n/a
304.039175039	0.01580494500003988	5.01580494500004	n/a	21	choice2	n/a	0	n/a
309.054979984	1.5	n/a	n/a	21	outcome	n/a	n/a	1
310.554979984	4.066813240999997	6.533503903999983	n/a	21	ITI_onset	n/a	n/a	n/a
314.62179322500003	0.44029701099998786	2.4666906629999867	0.44029701099998786	22	stim1	n/a	n/a	n/a
315.062090236	0.00969527399999788	2.026393651999999	n/a	22	choice1	0	n/a	n/a
317.088483888	0.4677210779999732	3.4832966489999673	0.4677210779999732	22	stim2	n/a	0	n/a
317.556204966	0.015575570999993942	3.015575570999994	n/a	22	choice2	n/a	0	n/a
320.571780537	1.5	n/a	n/a	22	outcome	n/a	n/a	1
322.071780537	2.0668597570000564	7.250244852000033	n/a	22	ITI_onset	n/a	n/a	n/a
324.138640294	1.6464535840000025	5.183385094999976	1.6464535840000025	23	stim1	n/a	n/a	n/a
325.78509387800005	0.020165924999979323	3.5369315109999735	n/a	23	choice1	0	n/a	n/a
329.322025389	0.31601324200001546	2.3333333340000246	0.31601324200001546	23	stim2	n/a	0	n/a
329.63803863100003	0.017320092000009026	2.017320092000009	n/a	23	choice2	n/a	0	n/a
331.655358723	1.5	n/a	n/a	23	outcome	n/a	n/a	1
333.155358723	4.066822543999995	8.366885516999988	n/a	23	ITI_onset	n/a	n/a	n/a
337.222181267	0.26983253199997126	4.300062972999993	0.26983253199997126	24	stim1	n/a	n/a	n/a
337.492013799	0.013471431999991183	4.030230441000022	n/a	24	choice1	0	n/a	n/a
341.52224424	0.9453899009999587	2.9666860109999544	0.9453899009999587	24	stim2	n/a	0	n/a
342.46763414099996	0.021296109999995677	2.0212961099999958	n/a	24	choice2	n/a	0	n/a
344.48893025099994	1.5	n/a	n/a	24	outcome	n/a	n/a	0
345.98893025099994	7.566816931000037	12.050229710000043	n/a	24	ITI_onset	n/a	n/a	n/a
353.555747182	1.945951944999979	4.483412779000005	1.945951944999979	25	stim1	n/a	n/a	n/a
355.501699127	0.020770636999979615	2.5374608340000266	n/a	25	choice1	1	n/a	n/a
358.039159961	0.6100204389999854	2.616669698999962	0.6100204389999854	25	stim2	n/a	1	n/a
358.6491804	0.006649259999976493	2.0066492599999766	n/a	25	choice2	n/a	1	n/a
360.65582966	1.5	n/a	n/a	25	outcome	n/a	n/a	0
362.15582966	1.0	1.0	n/a	25	ITI_onset	n/a	n/a	n/a
