onset	duration	duration2fb	response_time	trial	event	choice1	state	reward
0.0	0.687347178	3.233380363	0.687347178	1	stim1	n/a	n/a	n/a
0.6873471779999996	0.012960406999998668	2.546033185	n/a	1	choice1	1	n/a	n/a
3.2333803629999984	0.4276449980000034	7.450271495000001	0.4276449980000034	1	stim2	n/a	0	n/a
3.6610253610000036	0.02262649699999747	7.022626496999997	n/a	1	choice2	n/a	0	n/a
10.683651858000001	1.5	n/a	n/a	1	outcome	n/a	n/a	1
12.183651857999998	2.0832571430000026	8.983358709	n/a	1	ITI_onset	n/a	n/a	n/a
14.266909001000002	0.3754825659999988	6.900101565999997	0.3754825659999988	2	stim1	n/a	n/a	n/a
14.642391567000004	0.007843612999997276	6.524618999999999	n/a	2	choice1	1	n/a	n/a
21.167010567	0.6620532099999982	6.183349341000001	0.6620532099999982	2	stim2	n/a	1	n/a
21.829063777000002	0.02129613100000279	5.521296131000002	n/a	2	choice2	n/a	1	n/a
27.350359908	1.5	n/a	n/a	2	outcome	n/a	n/a	0
28.850359908	3.066865436	6.950277911000005	n/a	2	ITI_onset	n/a	n/a	n/a
31.917225344000002	0.3548440799999953	3.8834124750000045	0.3548440799999953	3	stim1	n/a	n/a	n/a
32.272069423999994	0.011827013000001899	3.5285683950000095	n/a	3	choice1	1	n/a	n/a
35.80063781900001	0.5124195350000009	4.033297338999997	0.5124195350000009	3	stim2	n/a	0	n/a
36.31305735400001	0.020877803999996104	3.520877803999996	n/a	3	choice2	n/a	0	n/a
39.833935158	1.5	n/a	n/a	3	outcome	n/a	n/a	1
41.333935158	3.0668131450000002	8.850262383999993	n/a	3	ITI_onset	n/a	n/a	n/a
44.40074830300001	0.753782739000002	5.783449238999994	0.753782739000002	4	stim1	n/a	n/a	n/a
45.15453104200001	0.012904587999997602	5.029666499999992	n/a	4	choice1	1	n/a	n/a
50.184197542	0.37117708100000163	3.3833364460000013	0.37117708100000163	4	stim2	n/a	0	n/a
50.555374623	0.012159364999999525	3.0121593649999996	n/a	4	choice2	n/a	0	n/a
53.567533988	1.5	n/a	n/a	4	outcome	n/a	n/a	0
55.067533988	4.066842336999994	8.483595138999997	n/a	4	ITI_onset	n/a	n/a	n/a
59.134376325	0.3941769920000079	4.416752802000003	0.3941769920000079	5	stim1	n/a	n/a	n/a
59.528553317	0.005840523999999277	4.022575809999995	n/a	5	choice1	1	n/a	n/a
63.551129127	0.6543109720000065	8.666669234	0.6543109720000065	5	stim2	n/a	1	n/a
64.20544009900001	0.012358261999994284	8.012358261999994	n/a	5	choice2	n/a	1	n/a
72.217798361	1.5	n/a	n/a	5	outcome	n/a	n/a	0
73.717798361	7.567018778999991	15.600487426000006	n/a	5	ITI_onset	n/a	n/a	n/a
81.28481714	0.5066893660000206	8.033468647000015	0.5066893660000206	6	stim1	n/a	n/a	n/a
81.79150650600002	0.009862420999983442	7.526779280999995	n/a	6	choice1	1	n/a	n/a
89.31828578700001	0.3219859199999919	6.333329483999987	0.3219859199999919	6	stim2	n/a	0	n/a
89.64027170699998	0.01134356399999524	6.011343563999995	n/a	6	choice2	n/a	0	n/a
95.651615271	1.5	n/a	n/a	6	outcome	n/a	n/a	1
97.151615271	7.066847150000002	9.500398757000017	n/a	6	ITI_onset	n/a	n/a	n/a
104.218462421	0.39903297400000154	2.4335516070000156	0.39903297400000154	7	stim1	n/a	n/a	n/a
104.61749539499999	0.01765406400000211	2.0345186330000145	n/a	7	choice1	1	n/a	n/a
106.652014028	0.4606170439999987	3.4665034429999797	0.4606170439999987	7	stim2	n/a	0	n/a
107.112631072	0.005886398999980884	3.005886398999981	n/a	7	choice2	n/a	0	n/a
110.11851747099999	1.5	n/a	n/a	7	outcome	n/a	n/a	1
111.61851747099999	3.566790047000017	8.233628343000019	n/a	7	ITI_onset	n/a	n/a	n/a
115.185307518	1.1367797749999735	4.666838296000002	1.1367797749999735	8	stim1	n/a	n/a	n/a
116.32208729299998	0.013233089000015753	3.530058521000028	n/a	8	choice1	1	n/a	n/a
119.85214581400001	0.5803407299999963	2.5999478370000144	0.5803407299999963	8	stim2	n/a	0	n/a
120.432486544	0.019607107000018005	2.019607107000018	n/a	8	choice2	n/a	0	n/a
122.45209365100004	1.5	n/a	n/a	8	outcome	n/a	n/a	1
123.95209365100004	5.566800954999985	12.733582788999978	n/a	8	ITI_onset	n/a	n/a	n/a
129.518894606	1.1308468599999906	7.166781833999994	1.1308468599999906	9	stim1	n/a	n/a	n/a
130.649741466	0.019183648000005632	6.0359349740000035	n/a	9	choice1	1	n/a	n/a
136.68567644	1.0194444610000064	7.533356688	1.0194444610000064	9	stim2	n/a	0	n/a
137.70512090100002	0.013912226999993437	6.513912226999993	n/a	9	choice2	n/a	0	n/a
144.219033128	1.5	n/a	n/a	9	outcome	n/a	n/a	1
145.719033128	2.566844584000006	5.966896746000013	n/a	9	ITI_onset	n/a	n/a	n/a
148.285877712	0.3695602380000055	3.4000521620000073	0.3695602380000055	10	stim1	n/a	n/a	n/a
148.65543795000002	0.013805720999982441	3.030491924000002	n/a	10	choice1	1	n/a	n/a
151.685929874	0.43756805000000165	8.450067464999972	0.43756805000000165	10	stim2	n/a	0	n/a
152.12349792400002	0.012499414999969304	8.012499414999969	n/a	10	choice2	n/a	0	n/a
160.135997339	1.5	n/a	n/a	10	outcome	n/a	n/a	1
161.635997339	7.066966167000035	9.466943262000015	n/a	10	ITI_onset	n/a	n/a	n/a
168.70296350600003	0.3751787670000049	2.39997709499998	0.3751787670000049	11	stim1	n/a	n/a	n/a
169.07814227300003	0.008128484999964712	2.0247983279999753	n/a	11	choice1	1	n/a	n/a
171.102940601	0.4474651179999928	4.466726721000014	0.4474651179999928	11	stim2	n/a	0	n/a
171.550405719	0.01926160300002084	4.019261603000021	n/a	11	choice2	n/a	0	n/a
175.56966732200002	1.5	n/a	n/a	11	outcome	n/a	n/a	1
177.06966732200002	2.0667900469999876	9.133590681000001	n/a	11	ITI_onset	n/a	n/a	n/a
179.136457369	0.545072061999992	7.066800634000014	0.545072061999992	12	stim1	n/a	n/a	n/a
179.681529431	0.004904422999999951	6.521728572000022	n/a	12	choice1	1	n/a	n/a
186.20325800300003	0.4839294159999699	4.49995316299997	0.4839294159999699	12	stim2	n/a	0	n/a
186.687187419	0.016023746999999276	4.016023746999999	n/a	12	choice2	n/a	0	n/a
190.703211166	1.5	n/a	n/a	12	outcome	n/a	n/a	0
192.203211166	6.566892062000028	10.70030598100004	n/a	12	ITI_onset	n/a	n/a	n/a
198.770103228	1.110370379	4.133413919000013	1.110370379	13	stim1	n/a	n/a	n/a
199.88047360700003	0.00628387199997087	3.0230435400000135	n/a	13	choice1	1	n/a	n/a
202.90351714700003	0.46918406500000853	5.983301605999993	0.46918406500000853	13	stim2	n/a	0	n/a
203.37270121200004	0.014117540999985067	5.514117540999985	n/a	13	choice2	n/a	0	n/a
208.88681875300003	1.5	n/a	n/a	13	outcome	n/a	n/a	1
210.38681875300003	3.0669090639999776	5.5002200699999815	n/a	13	ITI_onset	n/a	n/a	n/a
213.45372781700001	0.4036862099999853	2.4333110060000034	0.4036862099999853	14	stim1	n/a	n/a	n/a
213.85741402699998	0.012937951000028989	2.0296247960000184	n/a	14	choice1	1	n/a	n/a
215.887038823	0.4910874739999999	7.500023739000025	0.4910874739999999	14	stim2	n/a	0	n/a
216.378126297	0.008936265000025742	7.008936265000026	n/a	14	choice2	n/a	0	n/a
223.38706256200004	1.5	n/a	n/a	14	outcome	n/a	n/a	1
224.88706256200004	3.1001788149999627	7.600285000999982	n/a	14	ITI_onset	n/a	n/a	n/a
227.987241377	0.4759943750000093	4.500106186000019	0.4759943750000093	15	stim1	n/a	n/a	n/a
228.463235752	0.007394810000027064	4.02411181100001	n/a	15	choice1	1	n/a	n/a
232.48734756300001	0.5673033309999737	2.583372951999976	0.5673033309999737	15	stim2	n/a	0	n/a
233.054650894	0.016069621000002372	2.0160696210000024	n/a	15	choice2	n/a	0	n/a
235.07072051499998	1.5	n/a	n/a	15	outcome	n/a	n/a	1
236.57072051499998	2.5667537970000414	6.933538134000002	n/a	15	ITI_onset	n/a	n/a	n/a
239.13747431200002	0.8311425750000053	4.366784336999961	0.8311425750000053	16	stim1	n/a	n/a	n/a
239.96861688700002	0.018879848999960813	3.5356417619999556	n/a	16	choice1	1	n/a	n/a
243.50425864899998	0.49319450300000606	2.9999274980000337	0.49319450300000606	16	stim2	n/a	0	n/a
243.99745315200002	0.006732995000027586	2.5067329950000277	n/a	16	choice2	n/a	0	n/a
246.504186147	1.5	n/a	n/a	16	outcome	n/a	n/a	1
248.004186147	2.5668134659999633	6.933569252000016	n/a	16	ITI_onset	n/a	n/a	n/a
250.570999613	0.3325685410000151	4.366755786000052	0.3325685410000151	17	stim1	n/a	n/a	n/a
250.903568154	0.017446504999999887	4.034187245000037	n/a	17	choice1	1	n/a	n/a
254.93775539900005	0.3057953549999511	2.316675359999994	0.3057953549999511	17	stim2	n/a	0	n/a
255.24355075399998	0.01088000500004273	2.010880005000043	n/a	17	choice2	n/a	0	n/a
257.254430759	1.5	n/a	n/a	17	outcome	n/a	n/a	1
258.754430759	3.566840412999969	10.600262223999946	n/a	17	ITI_onset	n/a	n/a	n/a
262.32127117199997	0.5012572240000008	7.033421810999978	0.5012572240000008	18	stim1	n/a	n/a	n/a
262.822528396	0.015325682000024245	6.532164586999977	n/a	18	choice1	1	n/a	n/a
269.35469298299995	0.7039387450000504	2.716629356999998	0.7039387450000504	18	stim2	n/a	0	n/a
270.058631728	0.012690611999947577	2.0126906119999477	n/a	18	choice2	n/a	0	n/a
272.07132233999994	1.5	n/a	n/a	18	outcome	n/a	n/a	1
273.57132233999994	2.0667525139999925	6.583625103000028	n/a	18	ITI_onset	n/a	n/a	n/a
275.63807485399997	0.4924986830000416	4.516872589000035	0.4924986830000416	19	stim1	n/a	n/a	n/a
276.130573537	0.007489767999970354	4.024373905999993	n/a	19	choice1	1	n/a	n/a
280.15494744299997	0.8626408560000127	3.8832318640000305	0.8626408560000127	19	stim2	n/a	1	n/a
281.017588299	0.02059100800001761	3.0205910080000176	n/a	19	choice2	n/a	1	n/a
284.038179307	1.5	n/a	n/a	19	outcome	n/a	n/a	0
285.538179307	3.5668192399999827	6.433499315999972	n/a	19	ITI_onset	n/a	n/a	n/a
289.104998547	0.340549777999986	2.8666800759999895	0.340549777999986	20	stim1	n/a	n/a	n/a
289.445548325	0.009452755999984219	2.5261302980000035	n/a	20	choice1	1	n/a	n/a
291.971678623	0.3158711089999997	2.833820706999977	0.3158711089999997	20	stim2	n/a	0	n/a
292.287549732	0.017949597999977415	2.5179495979999773	n/a	20	choice2	n/a	0	n/a
294.80549933	1.5	n/a	n/a	20	outcome	n/a	n/a	1
296.30549933	3.066323526000022	5.4330427400000625	n/a	20	ITI_onset	n/a	n/a	n/a
299.371822856	0.33536882299999704	2.3667192140000406	0.33536882299999704	21	stim1	n/a	n/a	n/a
299.707191679	0.014610933999996632	2.0313503910000437	n/a	21	choice1	1	n/a	n/a
301.73854207	0.3939617329999455	3.399991530999949	0.3939617329999455	21	stim2	n/a	0	n/a
302.13250380299996	0.006029798000003211	3.0060297980000033	n/a	21	choice2	n/a	0	n/a
305.13853360099995	1.5	n/a	n/a	21	outcome	n/a	n/a	1
306.63853360099995	2.5667938960000174	5.483503069000028	n/a	21	ITI_onset	n/a	n/a	n/a
309.205327497	0.3941561400000355	2.9167091730000103	0.3941561400000355	22	stim1	n/a	n/a	n/a
309.59948363700005	0.00586618799995631	2.5225530329999746	n/a	22	choice1	1	n/a	n/a
312.12203667	0.3131940159999649	6.33336701799999	0.3131940159999649	22	stim2	n/a	0	n/a
312.43523068599995	0.020173002000025007	6.020173002000025	n/a	22	choice2	n/a	0	n/a
318.455403688	1.5	n/a	n/a	22	outcome	n/a	n/a	0
319.955403688	8.066976754000002	13.65034136599995	n/a	22	ITI_onset	n/a	n/a	n/a
328.022380442	0.5412638189999852	5.583364611999946	0.5412638189999852	23	stim1	n/a	n/a	n/a
328.563644261	0.008669678999984172	5.042100792999961	n/a	23	choice1	1	n/a	n/a
333.60574505399995	0.3978270780000603	4.416670676000067	0.3978270780000603	23	stim2	n/a	0	n/a
334.003572132	0.01884359800000675	4.018843598000006	n/a	23	choice2	n/a	0	n/a
338.02241573	1.5	n/a	n/a	23	outcome	n/a	n/a	0
339.52241573	3.566823732000019	7.500248621999985	n/a	23	ITI_onset	n/a	n/a	n/a
343.089239462	0.4004114599999739	3.9334248899999658	0.4004114599999739	24	stim1	n/a	n/a	n/a
343.489650922	0.016284879999991973	3.5330134299999916	n/a	24	choice1	1	n/a	n/a
347.022664352	0.36256771299999674	2.383358260000008	0.36256771299999674	24	stim2	n/a	0	n/a
347.38523206499997	0.020790547000011428	2.0207905470000114	n/a	24	choice2	n/a	0	n/a
349.406022612	1.5	n/a	n/a	24	outcome	n/a	n/a	0
350.906022612	6.066829504999973	13.016919425999978	n/a	24	ITI_onset	n/a	n/a	n/a
356.97285211699995	0.424919784000027	6.950089921000006	0.424919784000027	25	stim1	n/a	n/a	n/a
357.397771901	0.008362350000010338	6.5251701369999795	n/a	25	choice1	0	n/a	n/a
363.922942038	0.4846412760000094	6.499982355999993	0.4846412760000094	25	stim2	n/a	1	n/a
364.40758331399996	0.015341079999983777	6.015341079999984	n/a	25	choice2	n/a	1	n/a
370.42292439399995	1.5	n/a	n/a	25	outcome	n/a	n/a	0
371.92292439399995	1.0	1.0	n/a	25	ITI_onset	n/a	n/a	n/a
