onset	duration	duration2fb	response_time	trial	event	choice1	state	reward
0.0	2.0022170619999997	6.050083264	2.0022170619999997	1	stim1	n/a	n/a	n/a
2.0022170619999997	0.014692082999998092	4.047866202000001	n/a	1	choice1	1	n/a	n/a
6.050083264000001	0.6192370760000012	4.133365830999999	0.6192370760000012	1	stim2	n/a	0	n/a
6.669320340000002	0.01412875499999791	3.514128754999998	n/a	1	choice2	n/a	0	n/a
10.183449095	1.5	n/a	n/a	1	outcome	n/a	n/a	0
11.683449095	2.5667551760000022	10.033602069000004	n/a	1	ITI_onset	n/a	n/a	n/a
14.250204271000005	0.4430539819999976	7.466846893000001	0.4430539819999976	2	stim1	n/a	n/a	n/a
14.693258253	0.0069007689999998545	7.023792911000004	n/a	2	choice1	0	n/a	n/a
21.717051164000008	0.7271371739999959	8.233317741999992	0.7271371739999959	2	stim2	n/a	0	n/a
22.444188338	0.006180567999996128	7.506180567999996	n/a	2	choice2	n/a	0	n/a
29.950368905999998	1.5	n/a	n/a	2	outcome	n/a	n/a	0
31.450368905999998	4.066905150999999	10.166973513999997	n/a	2	ITI_onset	n/a	n/a	n/a
35.517274056999995	0.5659772320000047	6.100068362999998	0.5659772320000047	3	stim1	n/a	n/a	n/a
36.083251289	0.017379118999997445	5.534091130999994	n/a	3	choice1	1	n/a	n/a
41.61734242	0.36715098100000615	3.3833505120000047	0.36715098100000615	3	stim2	n/a	1	n/a
41.984493400999995	0.016199530999998386	3.0161995309999985	n/a	3	choice2	n/a	1	n/a
45.00069293199999	1.5	n/a	n/a	3	outcome	n/a	n/a	0
46.50069293199999	4.0667606300000045	7.816846043000012	n/a	3	ITI_onset	n/a	n/a	n/a
50.567453562	0.7167781610000092	3.750085413000008	0.7167781610000092	4	stim1	n/a	n/a	n/a
51.284231723000005	0.01660983699999633	3.033307251999999	n/a	4	choice1	1	n/a	n/a
54.317538975000005	0.4683581909999921	3.483361772999997	0.4683581909999921	4	stim2	n/a	1	n/a
54.785897166	0.015003582000004826	3.0150035820000047	n/a	4	choice2	n/a	1	n/a
57.800900748000004	1.5	n/a	n/a	4	outcome	n/a	n/a	0
59.300900748000004	6.566887826999999	8.816878443999988	n/a	4	ITI_onset	n/a	n/a	n/a
65.867788575	0.21906788499999674	2.2499906169999884	0.21906788499999674	5	stim1	n/a	n/a	n/a
66.08685646	0.01423814799998945	2.0309227319999916	n/a	5	choice1	0	n/a	n/a
68.11777919199999	0.37963530600001105	4.399965481000007	0.37963530600001105	5	stim2	n/a	0	n/a
68.497414498	0.020330174999995506	4.020330174999995	n/a	5	choice2	n/a	0	n/a
72.517744673	1.5	n/a	n/a	5	outcome	n/a	n/a	1
74.017744673	2.0668764389999996	6.01689390699999	n/a	5	ITI_onset	n/a	n/a	n/a
76.084621112	0.4272769479999988	3.950017467999991	0.4272769479999988	6	stim1	n/a	n/a	n/a
76.51189806	0.00601952600000368	3.522740519999992	n/a	6	choice1	0	n/a	n/a
80.03463857999999	0.36159822200001507	5.366676514999999	0.36159822200001507	6	stim2	n/a	0	n/a
80.396236802	0.0050782929999841145	5.005078292999984	n/a	6	choice2	n/a	0	n/a
85.40131509499999	1.5	n/a	n/a	6	outcome	n/a	n/a	1
86.90131509499999	3.566866976000005	7.066903066000013	n/a	6	ITI_onset	n/a	n/a	n/a
90.46818207099999	0.4730431810000009	3.5000360900000085	0.4730431810000009	7	stim1	n/a	n/a	n/a
90.941225252	0.01024705200002063	3.0269929090000076	n/a	7	choice1	0	n/a	n/a
93.968218161	0.4553236909999832	4.96664510899999	0.4553236909999832	7	stim2	n/a	0	n/a
94.42354185199999	0.011321418000006815	4.511321418000007	n/a	7	choice2	n/a	0	n/a
98.93486327	1.5	n/a	n/a	7	outcome	n/a	n/a	1
100.43486327	6.066870503999992	14.58366977400001	n/a	7	ITI_onset	n/a	n/a	n/a
106.50173377399999	0.4825366700000159	8.516799270000018	0.4825366700000159	8	stim1	n/a	n/a	n/a
106.984270444	0.01746798199998739	8.034262600000002	n/a	8	choice1	0	n/a	n/a
115.01853304400001	0.3903346890000103	2.39995746200002	0.3903346890000103	8	stim2	n/a	0	n/a
115.40886773300002	0.009622773000010056	2.00962277300001	n/a	8	choice2	n/a	0	n/a
117.41849050600001	1.5	n/a	n/a	8	outcome	n/a	n/a	1
118.91849050600001	2.566805059999984	9.850277765999985	n/a	8	ITI_onset	n/a	n/a	n/a
121.48529556600002	0.7465665380000137	7.283472706	0.7465665380000137	9	stim1	n/a	n/a	n/a
122.23186210400002	0.02011940899997717	6.5369061679999865	n/a	9	choice1	0	n/a	n/a
128.76876827200002	0.4787463960000023	4.4833184640000106	0.4787463960000023	9	stim2	n/a	0	n/a
129.247514668	0.004572068000008585	4.004572068000009	n/a	9	choice2	n/a	0	n/a
133.25208673600002	1.5	n/a	n/a	9	outcome	n/a	n/a	1
134.75208673600002	3.566860879999993	7.000193282999971	n/a	9	ITI_onset	n/a	n/a	n/a
138.318947616	0.40094649400000343	3.4333324029999783	0.40094649400000343	10	stim1	n/a	n/a	n/a
138.71989411	0.015684964999963996	3.032385908999975	n/a	10	choice1	0	n/a	n/a
141.75228001899998	0.4939514420000196	3.9999927819999868	0.4939514420000196	10	stim2	n/a	0	n/a
142.246231461	0.006041339999967022	3.506041339999967	n/a	10	choice2	n/a	0	n/a
145.75227280099998	1.5	n/a	n/a	10	outcome	n/a	n/a	1
147.25227280099998	7.066879807000019	14.43376580600004	n/a	10	ITI_onset	n/a	n/a	n/a
154.319152608	1.3410576010000077	7.36688599900002	1.3410576010000077	11	stim1	n/a	n/a	n/a
155.660210209	0.008992716999986442	6.025828398000012	n/a	11	choice1	0	n/a	n/a
161.686038607	0.5398151990000042	3.549937780999986	0.5398151990000042	11	stim2	n/a	0	n/a
162.22585380600003	0.010122581999981776	3.010122581999982	n/a	11	choice2	n/a	0	n/a
165.235976388	1.5	n/a	n/a	11	outcome	n/a	n/a	1
166.735976388	4.066815166000015	9.550251684999996	n/a	11	ITI_onset	n/a	n/a	n/a
170.802791554	0.4585384459999623	5.483436518999981	0.4585384459999623	12	stim1	n/a	n/a	n/a
171.26133	0.008138422000018181	5.024898073000019	n/a	12	choice1	0	n/a	n/a
176.286228073	0.43086575799999993	2.9499691870000095	0.43086575799999993	12	stim2	n/a	0	n/a
176.717093831	0.019103429000009782	2.5191034290000096	n/a	12	choice2	n/a	0	n/a
179.23619726	1.5	n/a	n/a	12	outcome	n/a	n/a	0
180.73619726	2.5667878980000096	6.333525494000002	n/a	12	ITI_onset	n/a	n/a	n/a
183.302985158	0.7410712019999919	3.7667375959999916	0.7410712019999919	13	stim1	n/a	n/a	n/a
184.04405636	0.00890802599999006	3.025666394	n/a	13	choice1	0	n/a	n/a
187.069722754	0.2674047030000074	2.78332192799999	0.2674047030000074	13	stim2	n/a	0	n/a
187.337127457	0.015917224999982865	2.515917224999983	n/a	13	choice2	n/a	0	n/a
189.853044682	1.5	n/a	n/a	13	outcome	n/a	n/a	1
191.353044682	2.566785011	11.200243553000007	n/a	13	ITI_onset	n/a	n/a	n/a
193.919829693	0.601363921000011	8.633458542000007	0.601363921000011	14	stim1	n/a	n/a	n/a
194.521193614	0.015281074999977136	8.032094620999997	n/a	14	choice1	0	n/a	n/a
202.553288235	0.7608550529999775	3.2666779269999826	0.7608550529999775	14	stim2	n/a	1	n/a
203.31414328799997	0.005822874000004958	2.505822874000005	n/a	14	choice2	n/a	1	n/a
205.819966162	1.5	n/a	n/a	14	outcome	n/a	n/a	0
207.319966162	5.066824950000009	11.400282113000022	n/a	14	ITI_onset	n/a	n/a	n/a
212.386791112	0.8125888420000265	6.333457163000014	0.8125888420000265	15	stim1	n/a	n/a	n/a
213.19937995400002	0.004092790999973658	5.520868320999988	n/a	15	choice1	0	n/a	n/a
218.72024827500002	0.489981839999964	2.9999761009999784	0.489981839999964	15	stim2	n/a	0	n/a
219.21023011499997	0.009994261000014376	2.5099942610000143	n/a	15	choice2	n/a	0	n/a
221.72022437599998	1.5	n/a	n/a	15	outcome	n/a	n/a	0
223.22022437599998	3.5667574210000166	6.650186113000004	n/a	15	ITI_onset	n/a	n/a	n/a
226.786981797	1.0617822659999656	3.0834286919999867	1.0617822659999656	16	stim1	n/a	n/a	n/a
227.84876406299998	0.004940349000040442	2.021646426000021	n/a	16	choice1	0	n/a	n/a
229.870410489	0.3658703400000231	2.383342492000025	0.3658703400000231	16	stim2	n/a	0	n/a
230.236280829	0.017472152000002097	2.017472152000002	n/a	16	choice2	n/a	0	n/a
232.25375298100002	1.5	n/a	n/a	16	outcome	n/a	n/a	0
233.75375298100002	4.566784849999997	6.900165982999985	n/a	16	ITI_onset	n/a	n/a	n/a
238.320537831	0.30223255599997356	2.333381132999988	0.30223255599997356	17	stim1	n/a	n/a	n/a
238.62277038699997	0.014441858000005595	2.0311485770000144	n/a	17	choice1	1	n/a	n/a
240.65391896399998	0.9782980749999988	8.983331777000014	0.9782980749999988	17	stim2	n/a	0	n/a
241.63221703899998	0.005033701999986079	8.005033702000015	n/a	17	choice2	n/a	0	n/a
249.63725074100003	1.5	n/a	n/a	17	outcome	n/a	n/a	1
251.13725074100003	2.566872108999989	6.150260218999989	n/a	17	ITI_onset	n/a	n/a	n/a
253.70412285	0.5601383159999969	3.58338811	0.5601383159999969	18	stim1	n/a	n/a	n/a
254.264261166	0.006529601000016555	3.023249794000003	n/a	18	choice1	0	n/a	n/a
257.28751096	0.2955229849999887	2.2999231029999794	0.2955229849999887	18	stim2	n/a	0	n/a
257.583033945	0.004400117999990471	2.0044001179999906	n/a	18	choice2	n/a	0	n/a
259.587434063	1.5	n/a	n/a	18	outcome	n/a	n/a	0
261.087434063	2.5668448410000417	7.400285803000036	n/a	18	ITI_onset	n/a	n/a	n/a
263.6542789040001	0.30348721199994905	4.833440961999993	0.30348721199994905	19	stim1	n/a	n/a	n/a
263.957766116	0.01320067500002915	4.529953750000044	n/a	19	choice1	1	n/a	n/a
268.487719866	0.3075026889999863	2.316643937999965	0.3075026889999863	19	stim2	n/a	1	n/a
268.795222555	0.009141248999978415	2.0091412489999785	n/a	19	choice2	n/a	1	n/a
270.804363804	1.5	n/a	n/a	19	outcome	n/a	n/a	0
272.304363804	2.566767846999981	6.983499396000058	n/a	19	ITI_onset	n/a	n/a	n/a
274.871131651	0.38765214500005823	4.416731549000077	0.38765214500005823	20	stim1	n/a	n/a	n/a
275.25878379600005	0.012356644999992568	4.029079404000019	n/a	20	choice1	1	n/a	n/a
279.28786320000006	0.4072743099999498	6.91668374899996	0.4072743099999498	20	stim2	n/a	1	n/a
279.69513751	0.009409439000010025	6.50940943900001	n/a	20	choice2	n/a	1	n/a
286.204546949	1.5	n/a	n/a	20	outcome	n/a	n/a	0
287.704546949	8.566922313999967	13.350335190000013	n/a	20	ITI_onset	n/a	n/a	n/a
296.271469263	0.2532852520000306	4.783412876000046	0.2532852520000306	21	stim1	n/a	n/a	n/a
296.52475451500004	0.01342876499996055	4.5301276240000155	n/a	21	choice1	0	n/a	n/a
301.05488213900003	0.27587932599993653	5.78336587899999	0.27587932599993653	21	stim2	n/a	0	n/a
301.33076146499997	0.007486553000053391	5.507486553000053	n/a	21	choice2	n/a	0	n/a
306.83824801800006	1.5	n/a	n/a	21	outcome	n/a	n/a	0
308.33824801800006	4.56684852900001	11.467087814999978	n/a	21	ITI_onset	n/a	n/a	n/a
312.905096547	0.36812942699994894	6.900239285999967	0.36812942699994894	22	stim1	n/a	n/a	n/a
313.273225974	0.015184514000022319	6.532109859000018	n/a	22	choice1	1	n/a	n/a
319.805335833	0.286030138000031	2.7998964779999804	0.286030138000031	22	stim2	n/a	1	n/a
320.091365971	0.013866339999949559	2.5138663399999497	n/a	22	choice2	n/a	1	n/a
322.605232311	1.5	n/a	n/a	22	outcome	n/a	n/a	1
324.105232311	3.1000561720000697	6.650138313000032	n/a	22	ITI_onset	n/a	n/a	n/a
327.20528848300006	1.0243992259999504	3.5500821409999626	1.0243992259999504	23	stim1	n/a	n/a	n/a
328.229687709	0.009006833000050393	2.525682915000012	n/a	23	choice1	1	n/a	n/a
330.755370624	0.3130285010000225	7.333368301000038	0.3130285010000225	23	stim2	n/a	1	n/a
331.06839912500004	0.02033980000001611	7.020339800000016	n/a	23	choice2	n/a	1	n/a
338.0887389250001	1.5	n/a	n/a	23	outcome	n/a	n/a	1
339.5887389250001	6.066920067999978	13.416997654000006	n/a	23	ITI_onset	n/a	n/a	n/a
345.65565899300003	0.3260524149999837	7.350077586000029	0.3260524149999837	24	stim1	n/a	n/a	n/a
345.981711408	0.007236648000020068	7.024025171000045	n/a	24	choice1	1	n/a	n/a
353.0057365790001	0.8449577489999356	8.350010056999919	0.8449577489999356	24	stim2	n/a	0	n/a
353.850694328	0.005052307999983896	7.505052307999984	n/a	24	choice2	n/a	0	n/a
361.355746636	1.5	n/a	n/a	24	outcome	n/a	n/a	0
362.855746636	3.06685671000008	9.850310969000041	n/a	24	ITI_onset	n/a	n/a	n/a
365.9226033460001	1.2613765159999601	6.783454258999962	1.2613765159999601	25	stim1	n/a	n/a	n/a
367.183979862	0.005341030000010506	5.522077743000001	n/a	25	choice1	1	n/a	n/a
372.706057605	1.3750167220000293	4.383357890999992	1.3750167220000293	25	stim2	n/a	0	n/a
374.08107432700007	0.008341168999962975	3.008341168999963	n/a	25	choice2	n/a	0	n/a
377.089415496	1.5	n/a	n/a	25	outcome	n/a	n/a	0
378.589415496	1.0	1.0	n/a	25	ITI_onset	n/a	n/a	n/a
