onset	duration	duration2fb	response_time	trial	event	choice1	state	reward
0.0	1.729795299999998	4.266735000000001	1.729795299999998	1	stim1	n/a	n/a	n/a
1.7297952999999993	0.020466400000001158	2.5369397000000027	n/a	1	choice1	1	n/a	n/a
4.266735000000001	2.5560838999999977	6.066670499999996	2.5560838999999977	1	stim2	n/a	0	n/a
6.822818899999998	0.010586599999998725	3.5105865999999986	n/a	1	choice2	n/a	0	n/a
10.333405499999998	1.5	n/a	n/a	1	outcome	n/a	n/a	0
11.833405499999998	3.566813099999999	6.850187200000001	n/a	1	ITI_onset	n/a	n/a	n/a
15.400218599999995	0.756079700000002	3.283374100000001	0.756079700000002	2	stim1	n/a	n/a	n/a
16.156298299999996	0.010601900000001479	2.527294399999999	n/a	2	choice1	0	n/a	n/a
18.6835927	3.1104388000000034	7.116714100000005	3.1104388000000034	2	stim2	n/a	0	n/a
21.794031500000003	0.006275300000001153	4.006275300000001	n/a	2	choice2	n/a	0	n/a
25.8003068	1.5	n/a	n/a	2	outcome	n/a	n/a	1
27.3003068	8.066885599999994	21.0670525	n/a	2	ITI_onset	n/a	n/a	n/a
35.36719239999999	8.963127700000005	13.000166900000004	8.963127700000005	3	stim1	n/a	n/a	n/a
44.3303201	0.020298599999994622	4.037039199999999	n/a	3	choice1	0	n/a	n/a
48.3673593	0.46040119999999296	7.466673999999999	0.46040119999999296	3	stim2	n/a	1	n/a
48.82776049999999	0.0062728000000061	7.006272800000006	n/a	3	choice2	n/a	1	n/a
55.834033299999994	1.5	n/a	n/a	3	outcome	n/a	n/a	0
57.334033299999994	3.5668337000000028	7.616890599999999	n/a	3	ITI_onset	n/a	n/a	n/a
60.900867	1.0248733999999968	4.050056899999996	1.0248733999999968	4	stim1	n/a	n/a	n/a
61.9257404	0.008494200000001001	3.0251834999999994	n/a	4	choice1	1	n/a	n/a
64.95092389999999	1.1818101000000025	8.200060100000002	1.1818101000000025	4	stim2	n/a	1	n/a
66.132734	0.01825	7.01825	n/a	4	choice2	n/a	1	n/a
73.150984	1.5	n/a	n/a	4	outcome	n/a	n/a	1
74.650984	3.5668511	12.466955499999996	n/a	4	ITI_onset	n/a	n/a	n/a
78.2178351	1.373236499999999	8.900104399999996	1.373236499999999	5	stim1	n/a	n/a	n/a
79.59107159999999	0.010072400000004563	7.526867899999997	n/a	5	choice1	1	n/a	n/a
87.1179395	1.3882213999999948	4.400021099999998	1.3882213999999948	5	stim2	n/a	0	n/a
88.5061609	0.011799700000003212	3.011799700000003	n/a	5	choice2	n/a	0	n/a
91.51796060000001	1.5	n/a	n/a	5	outcome	n/a	n/a	0
93.01796060000001	6.0668557	14.433590500000006	n/a	5	ITI_onset	n/a	n/a	n/a
99.0848163	0.8373825999999972	8.366734800000005	0.8373825999999972	6	stim1	n/a	n/a	n/a
99.92219889999998	0.012548099999999977	7.529352200000009	n/a	6	choice1	1	n/a	n/a
107.45155109999999	0.2839713999999949	5.3000090000000055	0.2839713999999949	6	stim2	n/a	1	n/a
107.7355225	0.01603760000001057	5.01603760000001	n/a	6	choice2	n/a	1	n/a
112.7515601	1.5	n/a	n/a	6	outcome	n/a	n/a	0
114.2515601	4.566861699999979	9.700222999999998	n/a	6	ITI_onset	n/a	n/a	n/a
118.81842179999998	0.5997082000000228	5.1333613000000184	0.5997082000000228	7	stim1	n/a	n/a	n/a
119.41812999999999	0.016928699999989475	4.533653099999996	n/a	7	choice1	0	n/a	n/a
123.9517831	1.238364100000006	3.7500020999999832	1.238364100000006	7	stim2	n/a	1	n/a
125.19014720000001	0.011637999999977182	2.5116379999999774	n/a	7	choice2	n/a	1	n/a
127.70178519999999	1.5	n/a	n/a	7	outcome	n/a	n/a	1
129.2017852	4.0667869000000065	14.900291100000002	n/a	7	ITI_onset	n/a	n/a	n/a
133.2685721	6.304616800000018	10.833504199999997	6.304616800000018	8	stim1	n/a	n/a	n/a
139.5731889	0.012124099999986357	4.528887399999978	n/a	8	choice1	0	n/a	n/a
144.1020763	1.4971012000000046	4.516673100000014	1.4971012000000046	8	stim2	n/a	1	n/a
145.5991775	0.01957190000000992	3.01957190000001	n/a	8	choice2	n/a	1	n/a
148.61874939999998	1.5	n/a	n/a	8	outcome	n/a	n/a	1
150.11874939999998	3.5668032999999997	10.616932499999995	n/a	8	ITI_onset	n/a	n/a	n/a
153.6855527	0.520030299999984	7.050129199999995	0.520030299999984	9	stim1	n/a	n/a	n/a
154.205583	0.01337290000001667	6.530098900000012	n/a	9	choice1	1	n/a	n/a
160.7356819	0.31590630000000236	6.3333214999999905	0.31590630000000236	9	stim2	n/a	0	n/a
161.0515882	0.017415199999988546	6.017415199999989	n/a	9	choice2	n/a	0	n/a
167.06900339999999	1.5	n/a	n/a	9	outcome	n/a	n/a	1
168.56900339999999	4.5668466000000185	6.916861200000014	n/a	9	ITI_onset	n/a	n/a	n/a
173.13585	0.31918899999998396	2.350014599999995	0.31918899999998396	10	stim1	n/a	n/a	n/a
173.455039	0.01412750000000233	2.030825600000011	n/a	10	choice1	1	n/a	n/a
175.48586459999999	10.091031599999987	15.100156400000007	10.091031599999987	10	stim2	n/a	0	n/a
185.5768962	0.009124800000019605	5.00912480000002	n/a	10	choice2	n/a	0	n/a
190.58602100000002	1.5	n/a	n/a	10	outcome	n/a	n/a	0
192.08602100000002	7.566930899999978	13.266939799999992	n/a	10	ITI_onset	n/a	n/a	n/a
199.65295189999998	0.6786515000000072	5.700008900000015	0.6786515000000072	11	stim1	n/a	n/a	n/a
200.33160339999998	0.004619999999995343	5.021357400000008	n/a	11	choice1	1	n/a	n/a
205.3529608	0.9020384999999951	4.916697400000005	0.9020384999999951	11	stim2	n/a	0	n/a
206.25499929999998	0.014658900000009453	4.0146589000000095	n/a	11	choice2	n/a	0	n/a
210.2696582	1.5	n/a	n/a	11	outcome	n/a	n/a	1
211.7696582	2.0667799999999987	7.5835478	n/a	11	ITI_onset	n/a	n/a	n/a
213.8364382	2.4880378999999957	5.516767800000001	2.4880378999999957	12	stim1	n/a	n/a	n/a
216.3244761	0.012020699999993667	3.028729900000006	n/a	12	choice1	0	n/a	n/a
219.353206	0.8408935999999813	3.8499761999999755	0.8408935999999813	12	stim2	n/a	1	n/a
220.1940996	0.009082599999994272	3.0090825999999944	n/a	12	choice2	n/a	1	n/a
223.2031822	1.5	n/a	n/a	12	outcome	n/a	n/a	1
224.7031822	3.06680230000001	7.450179600000003	n/a	12	ITI_onset	n/a	n/a	n/a
227.7699845	1.8558605000000097	4.383377299999993	1.8558605000000097	13	stim1	n/a	n/a	n/a
229.625845	0.010816399999981513	2.527516799999983	n/a	13	choice1	1	n/a	n/a
232.15336179999997	2.8896668000000063	6.400049800000008	2.8896668000000063	13	stim2	n/a	0	n/a
235.0430286	0.01038300000000163	3.510383000000002	n/a	13	choice2	n/a	0	n/a
238.5534116	1.5	n/a	n/a	13	outcome	n/a	n/a	0
240.0534116	4.566831599999976	7.983504499999981	n/a	13	ITI_onset	n/a	n/a	n/a
244.6202432	1.384175899999973	3.416672900000005	1.384175899999973	14	stim1	n/a	n/a	n/a
246.00441909999995	0.015801700000010896	2.032497000000032	n/a	14	choice1	1	n/a	n/a
248.03691609999998	3.067587799999979	7.583385999999998	3.067587799999979	14	stim2	n/a	0	n/a
251.1045039	0.015798200000019278	4.515798200000019	n/a	14	choice2	n/a	0	n/a
255.6203021	1.5	n/a	n/a	14	outcome	n/a	n/a	1
257.1203021	3.5668031999999656	13.150276499999977	n/a	14	ITI_onset	n/a	n/a	n/a
260.6871053	5.058972000000009	9.583473300000012	5.058972000000009	15	stim1	n/a	n/a	n/a
265.74607729999997	0.007783700000029058	4.524501300000003	n/a	15	choice1	1	n/a	n/a
270.27057859999996	0.7542510999999941	2.7666645000000134	0.7542510999999941	15	stim2	n/a	0	n/a
271.0248297	0.012413400000019465	2.0124134000000193	n/a	15	choice2	n/a	0	n/a
273.0372431	1.5	n/a	n/a	15	outcome	n/a	n/a	0
274.5372431	5.566806800000021	8.516851100000029	n/a	15	ITI_onset	n/a	n/a	n/a
280.1040499	0.41292300000000975	2.9500443000000085	0.41292300000000975	16	stim1	n/a	n/a	n/a
280.51697290000004	0.02040679999999702	2.537121299999999	n/a	16	choice1	0	n/a	n/a
283.0540942	0.8342984999999753	3.350028699999966	0.8342984999999753	16	stim2	n/a	1	n/a
283.8883927	0.01573019999999087	2.515730199999991	n/a	16	choice2	n/a	1	n/a
286.4041229	1.5	n/a	n/a	16	outcome	n/a	n/a	1
287.9041229	6.566829700000002	13.483602899999998	n/a	16	ITI_onset	n/a	n/a	n/a
294.4709526	0.39092889999999897	6.916773199999996	0.39092889999999897	17	stim1	n/a	n/a	n/a
294.8618815	0.009116900000022724	6.525844299999997	n/a	17	choice1	1	n/a	n/a
301.3877258	0.443070400000026	2.9499833000000217	0.443070400000026	17	stim2	n/a	1	n/a
301.8307962	0.006912899999995716	2.5069128999999957	n/a	17	choice2	n/a	1	n/a
304.3377091	1.5	n/a	n/a	17	outcome	n/a	n/a	1
305.8377091	4.100113799999992	13.28357329999999	n/a	17	ITI_onset	n/a	n/a	n/a
309.9378229	1.6539537000000128	9.183459499999998	1.6539537000000128	18	stim1	n/a	n/a	n/a
311.5917766	0.012889099999971221	7.529505799999985	n/a	18	choice1	0	n/a	n/a
319.1212824	0.3940327999999863	2.9167108000000006	0.3940327999999863	18	stim2	n/a	1	n/a
319.5153152	0.022678000000014437	2.5226780000000146	n/a	18	choice2	n/a	1	n/a
322.0379932	1.5	n/a	n/a	18	outcome	n/a	n/a	0
323.5379932	3.5667566000000224	8.966834499999997	n/a	18	ITI_onset	n/a	n/a	n/a
327.10474980000004	0.36259429999999704	5.400077899999975	0.36259429999999704	19	stim1	n/a	n/a	n/a
327.4673441	0.02073639999999432	5.037483599999978	n/a	19	choice1	0	n/a	n/a
332.50482769999996	1.838026200000022	4.350013399999996	1.838026200000022	19	stim2	n/a	1	n/a
334.3428539	0.01198719999997411	2.5119871999999743	n/a	19	choice2	n/a	1	n/a
336.8548411	1.5	n/a	n/a	19	outcome	n/a	n/a	0
338.3548411	4.066788500000024	8.916851399999985	n/a	19	ITI_onset	n/a	n/a	n/a
342.4216296	1.3191429999999817	4.850062899999961	1.3191429999999817	20	stim1	n/a	n/a	n/a
343.7407726	0.014206799999985378	3.530919899999979	n/a	20	choice1	1	n/a	n/a
347.2716925	1.1339902000000002	8.150048500000034	1.1339902000000002	20	stim2	n/a	0	n/a
348.4056827	0.016058300000033342	7.016058300000033	n/a	20	choice2	n/a	0	n/a
355.421741	1.5	n/a	n/a	20	outcome	n/a	n/a	1
356.921741	3.066804899999988	11.2169792	n/a	20	ITI_onset	n/a	n/a	n/a
359.9885459	0.6162097000000067	8.150174300000014	0.6162097000000067	21	stim1	n/a	n/a	n/a
360.6047556	0.01714159999997355	7.533964600000006	n/a	21	choice1	1	n/a	n/a
368.1387202	10.367342699999979	12.883441599999962	10.367342699999979	21	stim2	n/a	0	n/a
378.50606289999996	0.016098899999982676	2.5160988999999825	n/a	21	choice2	n/a	0	n/a
381.0221618	1.5	n/a	n/a	21	outcome	n/a	n/a	1
382.5221618	2.0667657999999935	24.96707950000005	n/a	21	ITI_onset	n/a	n/a	n/a
384.5889276	16.868791600000055	22.90031370000006	16.868791600000055	22	stim1	n/a	n/a	n/a
401.45771920000004	0.014709699999948499	6.031522100000002	n/a	22	choice1	1	n/a	n/a
407.4892413	0.5386042999999481	5.549911099999968	0.5386042999999481	22	stim2	n/a	0	n/a
408.0278456	0.011306800000020302	5.01130680000002	n/a	22	choice2	n/a	0	n/a
413.0391524	1.5	n/a	n/a	22	outcome	n/a	n/a	1
414.5391524	3.566918400000024	7.4503083999999795	n/a	22	ITI_onset	n/a	n/a	n/a
418.1060708	1.8591475999999676	3.883389999999956	1.8591475999999676	23	stim1	n/a	n/a	n/a
419.96521839999997	0.007538100000005215	2.0242423999999883	n/a	23	choice1	0	n/a	n/a
421.98946079999996	0.5643486000000266	6.083320600000035	0.5643486000000266	23	stim2	n/a	1	n/a
422.5538094	0.018972000000008846	5.518972000000009	n/a	23	choice2	n/a	1	n/a
428.0727814	1.5	n/a	n/a	23	outcome	n/a	n/a	0
429.5727814	8.066899199999986	12.900309000000009	n/a	23	ITI_onset	n/a	n/a	n/a
437.63968059999996	0.2969018999999971	4.833409800000023	0.2969018999999971	24	stim1	n/a	n/a	n/a
437.9365825	0.019775000000023284	4.536507900000026	n/a	24	choice1	1	n/a	n/a
442.4730904	2.7651502999999793	9.783371299999999	2.7651502999999793	24	stim2	n/a	0	n/a
445.2382407	0.01822100000001956	7.018221000000019	n/a	24	choice2	n/a	0	n/a
452.2564617	1.5	n/a	n/a	24	outcome	n/a	n/a	1
453.7564617	3.5668324999999603	17.167064599999982	n/a	24	ITI_onset	n/a	n/a	n/a
457.32329419999996	5.577358000000007	13.600232100000023	5.577358000000007	25	stim1	n/a	n/a	n/a
462.90065219999997	0.006023800000024494	8.022874100000015	n/a	25	choice1	0	n/a	n/a
470.9235263	0.3326126999999979	6.349996299999999	0.3326126999999979	25	stim2	n/a	1	n/a
471.256139	0.017383600000001026	6.017383600000001	n/a	25	choice2	n/a	1	n/a
477.2735226	1.5	n/a	n/a	25	outcome	n/a	n/a	1
478.7735226	1.0	1.0	n/a	25	ITI_onset	n/a	n/a	n/a
