onset	duration	duration2fb	response_time	trial	event	choice1	state	reward
0.0	1.0344101360000022	4.566728965999999	1.0344101360000022	1	stim1	n/a	n/a	n/a
1.0344101360000053	0.01590983199999755	3.5323188299999964	n/a	1	choice1	1	n/a	n/a
4.5667289659999994	2.9269836450000004	8.433814793000002	2.9269836450000004	1	stim2	n/a	0	n/a
7.493712610999999	0.006831148000001122	5.506831148000001	n/a	1	choice2	n/a	0	n/a
13.000543759	1.5	n/a	n/a	1	outcome	n/a	n/a	1
14.500543759	2.0664020690000036	8.749785704000002	n/a	1	ITI_onset	n/a	n/a	n/a
16.566945828000005	1.1497485559999987	6.683383634999998	1.1497485559999987	2	stim1	n/a	n/a	n/a
17.716694384000004	0.016913940999998885	5.533635079	n/a	2	choice1	1	n/a	n/a
23.250329463000003	2.7129971469999945	5.233377027000002	2.7129971469999945	2	stim2	n/a	1	n/a
25.96332661	0.020379880000007688	2.5203798800000077	n/a	2	choice2	n/a	1	n/a
28.483706490000007	1.5	n/a	n/a	2	outcome	n/a	n/a	0
29.983706490000007	3.0667568759999995	10.700270627999998	n/a	2	ITI_onset	n/a	n/a	n/a
33.050463366	2.6023793209999933	7.633513751999999	2.6023793209999933	3	stim1	n/a	n/a	n/a
35.652842687	0.01479312100000243	5.031134431000006	n/a	3	choice1	0	n/a	n/a
40.683977118	2.089347078999999	5.600054793000003	2.089347078999999	3	stim2	n/a	0	n/a
42.77332419700001	0.010707713999996486	3.5107077140000036	n/a	3	choice2	n/a	0	n/a
46.284031911000014	1.5	n/a	n/a	3	outcome	n/a	n/a	1
47.784031911000014	6.566801466999998	10.866878908999992	n/a	3	ITI_onset	n/a	n/a	n/a
54.350833378000004	1.2720644099999918	4.300077441999995	1.2720644099999918	4	stim1	n/a	n/a	n/a
55.622897788	0.01127457000000868	3.0280130320000027	n/a	4	choice1	1	n/a	n/a
58.65091082000001	0.7629709690000018	2.78334635800001	0.7629709690000018	4	stim2	n/a	0	n/a
59.413881789	0.020375389000007998	2.020375389000008	n/a	4	choice2	n/a	0	n/a
61.43425717800001	1.5	n/a	n/a	4	outcome	n/a	n/a	0
62.93425717800001	3.0667847859999893	10.050152829999991	n/a	4	ITI_onset	n/a	n/a	n/a
66.001041964	1.9538045780000102	6.983368044000002	1.9538045780000102	5	stim1	n/a	n/a	n/a
67.95484654200001	0.01286446199999773	5.029563465999992	n/a	5	choice1	1	n/a	n/a
72.984410008	1.8699168990000035	3.8834749350000055	1.8699168990000035	5	stim2	n/a	0	n/a
74.854326907	0.013558036000002176	2.0135580360000023	n/a	5	choice2	n/a	0	n/a
76.867884943	1.5	n/a	n/a	5	outcome	n/a	n/a	1
78.367884943	2.066645557999989	8.050103426000002	n/a	5	ITI_onset	n/a	n/a	n/a
80.434530501	2.459718233000007	5.983457868000012	2.459718233000007	6	stim1	n/a	n/a	n/a
82.894248734	0.007012080000000424	3.5237396350000054	n/a	6	choice1	1	n/a	n/a
86.41798836900001	0.8176945789999881	5.833317613999985	0.8176945789999881	6	stim2	n/a	0	n/a
87.235682948	0.01562303499999689	5.015623034999997	n/a	6	choice2	n/a	0	n/a
92.251305983	1.5	n/a	n/a	6	outcome	n/a	n/a	1
93.751305983	6.066900916000013	9.316972455000025	n/a	6	ITI_onset	n/a	n/a	n/a
99.818206899	1.2270755219999991	3.2500715390000114	1.2270755219999991	7	stim1	n/a	n/a	n/a
101.04528242100001	0.006267178999987664	2.022996017000012	n/a	7	choice1	0	n/a	n/a
103.06827843800002	0.7259655490000004	3.7332965049999913	0.7259655490000004	7	stim2	n/a	1	n/a
103.79424398700002	0.007330955999990693	3.007330955999991	n/a	7	choice2	n/a	1	n/a
106.801574943	1.5	n/a	n/a	7	outcome	n/a	n/a	0
108.301574943	4.566877498000002	9.583584199999997	n/a	7	ITI_onset	n/a	n/a	n/a
112.868452441	0.9947427040000039	5.016706701999996	0.9947427040000039	8	stim1	n/a	n/a	n/a
113.863195145	0.0052181579999742095	4.021963997999992	n/a	8	choice1	1	n/a	n/a
117.885159143	1.1694242769999836	3.1833614999999993	1.1694242769999836	8	stim2	n/a	1	n/a
119.05458341999999	0.013937223000015365	2.013937223000015	n/a	8	choice2	n/a	1	n/a
121.06852064300001	1.5	n/a	n/a	8	outcome	n/a	n/a	1
122.56852064300001	6.066798580000002	13.416927477999998	n/a	8	ITI_onset	n/a	n/a	n/a
128.635319223	1.8294201959999918	7.350128897999995	1.8294201959999918	9	stim1	n/a	n/a	n/a
130.46473941899998	0.003919553999992786	5.520708702000004	n/a	9	choice1	1	n/a	n/a
135.985448121	0.6777426609999966	4.683344497999991	0.6777426609999966	9	stim2	n/a	0	n/a
136.663190782	0.005601836999994702	4.005601836999995	n/a	9	choice2	n/a	0	n/a
140.668792619	1.5	n/a	n/a	9	outcome	n/a	n/a	1
142.168792619	4.066778370000015	9.516863895000016	n/a	9	ITI_onset	n/a	n/a	n/a
146.235570989	1.4276425699999964	5.450085525000002	1.4276425699999964	10	stim1	n/a	n/a	n/a
147.66321355899998	0.005722137000004296	4.022442955000006	n/a	10	choice1	0	n/a	n/a
151.685656514	0.9915160829999949	4.000020210999995	0.9915160829999949	10	stim2	n/a	1	n/a
152.677172597	0.008504128000000492	3.0085041280000007	n/a	10	choice2	n/a	1	n/a
155.685676725	1.5	n/a	n/a	10	outcome	n/a	n/a	0
157.185676725	5.066817828	10.300233991999994	n/a	10	ITI_onset	n/a	n/a	n/a
162.252494553	1.1981151630000095	5.233416163999995	1.1981151630000095	11	stim1	n/a	n/a	n/a
163.450609716	0.018583391999971353	4.0353010009999855	n/a	11	choice1	1	n/a	n/a
167.485910717	0.7326869829999924	2.7500336839999946	0.7326869829999924	11	stim2	n/a	0	n/a
168.21859769999998	0.017346701000002213	2.0173467010000024	n/a	11	choice2	n/a	0	n/a
170.23594440099998	1.5	n/a	n/a	11	outcome	n/a	n/a	1
171.73594440099998	3.06675078100001	7.2501385870000234	n/a	11	ITI_onset	n/a	n/a	n/a
174.802695182	0.6510150810000196	4.183387806000013	0.6510150810000196	12	stim1	n/a	n/a	n/a
175.453710263	0.015669871999998575	3.532372724999994	n/a	12	choice1	1	n/a	n/a
178.98608298800002	0.6645035019999778	3.1833451389999827	0.6645035019999778	12	stim2	n/a	0	n/a
179.65058649	0.018841637000004994	2.518841637000005	n/a	12	choice2	n/a	0	n/a
182.169428127	1.5	n/a	n/a	12	outcome	n/a	n/a	1
183.669428127	7.566881025999988	14.316972454000002	n/a	12	ITI_onset	n/a	n/a	n/a
191.23630915299998	0.7248972789999971	6.750091428000014	0.7248972789999971	13	stim1	n/a	n/a	n/a
191.96120643199998	0.008390885000029812	6.025194149000018	n/a	13	choice1	1	n/a	n/a
197.986400581	0.6450462470000202	2.649982420000015	0.6450462470000202	13	stim2	n/a	0	n/a
198.631446828	0.004936172999994597	2.0049361729999946	n/a	13	choice2	n/a	0	n/a
200.636383001	1.5	n/a	n/a	13	outcome	n/a	n/a	1
202.136383001	3.0667815779999654	9.116876342999982	n/a	13	ITI_onset	n/a	n/a	n/a
205.20316457899997	1.0164766880000242	6.050094765000016	1.0164766880000242	14	stim1	n/a	n/a	n/a
206.219641267	0.016881540000002134	5.033618076999992	n/a	14	choice1	1	n/a	n/a
211.25325934399999	0.5084033960000088	4.016647354000015	0.5084033960000088	14	stim2	n/a	0	n/a
211.76166274	0.008243958000006386	3.508243958000006	n/a	14	choice2	n/a	0	n/a
215.269906698	1.5	n/a	n/a	14	outcome	n/a	n/a	0
216.769906698	5.566864665999979	10.816960263999965	n/a	14	ITI_onset	n/a	n/a	n/a
222.336771364	1.2187125459999952	5.2500955979999855	1.2187125459999952	15	stim1	n/a	n/a	n/a
223.55548391	0.014688540000002831	4.03138305199999	n/a	15	choice1	0	n/a	n/a
227.58686696199996	0.441701378000027	2.4499572059999917	0.441701378000027	15	stim2	n/a	1	n/a
228.02856834	0.008255827999964821	2.0082558279999647	n/a	15	choice2	n/a	1	n/a
230.03682416799995	1.5	n/a	n/a	15	outcome	n/a	n/a	1
231.53682416799995	7.583523889000033	12.150302900000039	n/a	15	ITI_onset	n/a	n/a	n/a
239.12034805699997	0.5421690420000231	4.566779011000006	0.5421690420000231	16	stim1	n/a	n/a	n/a
239.66251709900004	0.007875677999982145	4.024609968999983	n/a	16	choice1	0	n/a	n/a
243.68712706800002	0.3659662290000124	5.883305232000013	0.3659662290000124	16	stim2	n/a	1	n/a
244.053093297	0.017339003000000956	5.517339003000001	n/a	16	choice2	n/a	1	n/a
249.57043230000002	1.5	n/a	n/a	16	outcome	n/a	n/a	0
251.07043230000002	8.066898990999965	10.816947111000015	n/a	16	ITI_onset	n/a	n/a	n/a
259.137331291	0.725708265000023	2.7500481200000504	0.725708265000023	17	stim1	n/a	n/a	n/a
259.86303955600005	0.0076142249999684285	2.0243398550000276	n/a	17	choice1	1	n/a	n/a
261.88737941100004	0.7346951999999582	7.250027267999947	0.7346951999999582	17	stim2	n/a	0	n/a
262.622074611	0.015332067999988794	6.515332067999989	n/a	17	choice2	n/a	0	n/a
269.137406679	1.5	n/a	n/a	17	outcome	n/a	n/a	1
270.637406679	7.066856645000051	10.100278712	n/a	17	ITI_onset	n/a	n/a	n/a
277.70426332400007	0.5077691719999421	3.0334220669999485	0.5077691719999421	18	stim1	n/a	n/a	n/a
278.212032496	0.008912188000045717	2.5256528950000066	n/a	18	choice1	1	n/a	n/a
280.737685391	0.4632961340000038	4.483321208000067	0.4632961340000038	18	stim2	n/a	0	n/a
281.20098152500003	0.020025074000062888	4.0200250740000625	n/a	18	choice2	n/a	0	n/a
285.2210065990001	1.5	n/a	n/a	18	outcome	n/a	n/a	1
286.7210065990001	2.566786068999907	8.150226228999964	n/a	18	ITI_onset	n/a	n/a	n/a
289.28779266799995	0.5488426760000293	5.583440160000056	0.5488426760000293	19	stim1	n/a	n/a	n/a
289.836635344	0.017856776000000536	5.034597484000027	n/a	19	choice1	1	n/a	n/a
294.871232828	0.6033747679999797	4.116690277000016	0.6033747679999797	19	stim2	n/a	0	n/a
295.474607596	0.0133155090000364	3.5133155090000363	n/a	19	choice2	n/a	0	n/a
298.98792310500005	1.5	n/a	n/a	19	outcome	n/a	n/a	0
300.48792310500005	6.066821036999987	12.366927029999962	n/a	19	ITI_onset	n/a	n/a	n/a
306.55474414200006	0.7687614360000007	6.300105992999976	0.7687614360000007	20	stim1	n/a	n/a	n/a
307.32350557800004	0.014581392999971285	5.531344556999975	n/a	20	choice1	0	n/a	n/a
312.854850135	0.6186484499999788	6.133315495999995	0.6186484499999788	20	stim2	n/a	1	n/a
313.473498585	0.014667046000016852	5.5146670460000164	n/a	20	choice2	n/a	1	n/a
318.988165631	1.5	n/a	n/a	20	outcome	n/a	n/a	1
320.488165631	3.566829056999995	7.1502268710000205	n/a	20	ITI_onset	n/a	n/a	n/a
324.054994688	1.5589771179999807	3.5833978140000253	1.5589771179999807	21	stim1	n/a	n/a	n/a
325.613971806	0.007752169000043068	2.024420696000045	n/a	21	choice1	0	n/a	n/a
327.63839250200004	0.6651213659999776	3.183340005999955	0.6651213659999776	21	stim2	n/a	0	n/a
328.303513868	0.018218639999977315	2.5182186399999775	n/a	21	choice2	n/a	0	n/a
330.82173250799997	1.5	n/a	n/a	21	outcome	n/a	n/a	0
332.32173250799997	8.066872686000018	12.650260876000043	n/a	21	ITI_onset	n/a	n/a	n/a
340.388605194	0.5463609550000401	4.583388190000027	0.5463609550000401	22	stim1	n/a	n/a	n/a
340.93496614900005	0.020266958000021987	4.037027234999987	n/a	22	choice1	1	n/a	n/a
344.97199338400003	0.627221550999966	6.633355917999986	0.627221550999966	22	stim2	n/a	1	n/a
345.599214935	0.006134367000020575	6.006134367000021	n/a	22	choice2	n/a	1	n/a
351.60534930200004	1.5	n/a	n/a	22	outcome	n/a	n/a	0
353.10534930200004	5.5668871209999775	10.383604538999963	n/a	22	ITI_onset	n/a	n/a	n/a
358.672236423	0.7951428730000043	4.816717417999985	0.7951428730000043	23	stim1	n/a	n/a	n/a
359.467379296	0.004846028000058141	4.021574544999981	n/a	23	choice1	0	n/a	n/a
363.48895384099995	0.4959630330000655	3.016672377000039	0.4959630330000655	23	stim2	n/a	0	n/a
363.984916874	0.020709343999973498	2.5207093439999735	n/a	23	choice2	n/a	0	n/a
366.50562621800003	1.5	n/a	n/a	23	outcome	n/a	n/a	1
368.00562621800003	2.067026027999993	5.8501561660000005	n/a	23	ITI_onset	n/a	n/a	n/a
370.072652246	1.7566200610000524	3.7831301380000077	1.7566200610000524	24	stim1	n/a	n/a	n/a
371.82927230700005	0.009830000999965704	2.0265100769999553	n/a	24	choice1	0	n/a	n/a
373.855782384	0.687071569999971	3.7000130239999853	0.687071569999971	24	stim2	n/a	1	n/a
374.542853954	0.012941454000014346	3.0129414540000146	n/a	24	choice2	n/a	1	n/a
377.555795408	1.5	n/a	n/a	24	outcome	n/a	n/a	1
379.055795408	3.0672053140000206	10.583569765000021	n/a	24	ITI_onset	n/a	n/a	n/a
382.12300072200003	0.9823232359999674	7.516364451000001	0.9823232359999674	25	stim1	n/a	n/a	n/a
383.105323958	0.01771688700001687	6.534041215000034	n/a	25	choice1	0	n/a	n/a
389.63936517300004	0.5768589159999974	3.0833650919999926	0.5768589159999974	25	stim2	n/a	1	n/a
390.21622408900004	0.006506175999995321	2.5065061759999954	n/a	25	choice2	n/a	1	n/a
392.722730265	1.5	n/a	n/a	25	outcome	n/a	n/a	1
394.222730265	1.0	1.0	n/a	25	ITI_onset	n/a	n/a	n/a
