onset	duration	duration2fb	response_time	trial	event	choice1	state	reward
0.0	0.990111281999998	4.600000512999995	0.990111281999998	1	stim1	n/a	n/a	n/a
0.9901112819999973	0.02692105000000083	3.6098892309999973	n/a	1	choice1	1	n/a	n/a
4.600000512999994	0.6707764590000043	6.183698037000005	0.6707764590000043	1	stim2	n/a	1	n/a
5.270776971999997	0.01292157799999768	5.512921578000001	n/a	1	choice2	n/a	1	n/a
10.78369855	1.5	n/a	n/a	1	outcome	n/a	n/a	0
12.28369855	2.5664901929999977	8.983233290999998	n/a	1	ITI_onset	n/a	n/a	n/a
14.850188743	0.8845017099999968	6.416743097999999	0.8845017099999968	2	stim1	n/a	n/a	n/a
15.734690452999995	0.015927205000007234	5.532241388000002	n/a	2	choice1	1	n/a	n/a
21.266931840999998	0.5315628920000017	3.0500413990000017	0.5315628920000017	2	stim2	n/a	0	n/a
21.798494732999995	0.018478506999999807	2.5184785069999998	n/a	2	choice2	n/a	0	n/a
24.31697324	1.5	n/a	n/a	2	outcome	n/a	n/a	0
25.81697324	3.066841631999996	9.216890281999992	n/a	2	ITI_onset	n/a	n/a	n/a
28.88381487199999	1.1148682360000022	6.150048649999997	1.1148682360000022	3	stim1	n/a	n/a	n/a
29.998683107999998	0.018827540000005683	5.035180413999995	n/a	3	choice1	1	n/a	n/a
35.03386352199999	1.1529198260000122	4.666663940000013	1.1529198260000122	3	stim2	n/a	0	n/a
36.186783348000006	0.01374411400000099	3.513744114000001	n/a	3	choice2	n/a	0	n/a
39.70052746200001	1.5	n/a	n/a	3	outcome	n/a	n/a	0
41.200527462	7.066868578999994	10.766913715999989	n/a	3	ITI_onset	n/a	n/a	n/a
48.267396041	0.667240260999999	3.700045136999994	0.667240260999999	4	stim1	n/a	n/a	n/a
48.93463630199999	0.01606960599999002	3.032804875999995	n/a	4	choice1	1	n/a	n/a
51.96744117799999	0.7060826280000038	2.7167127179999953	0.7060826280000038	4	stim2	n/a	1	n/a
52.67352380599999	0.010630089999991469	2.0106300899999914	n/a	4	choice2	n/a	1	n/a
54.684153895999984	1.5	n/a	n/a	4	outcome	n/a	n/a	0
56.184153895999984	3.066774103000018	9.216875364000007	n/a	4	ITI_onset	n/a	n/a	n/a
59.250927999	1.122665003999995	6.150101260999989	1.122665003999995	5	stim1	n/a	n/a	n/a
60.373593002999996	0.01065158400000655	5.0274362569999935	n/a	5	choice1	1	n/a	n/a
65.40102925999999	0.7956071959999972	2.799958553000004	0.7956071959999972	5	stim2	n/a	0	n/a
66.196636456	0.004351357000006829	2.0043513570000067	n/a	5	choice2	n/a	0	n/a
68.200987813	1.5	n/a	n/a	5	outcome	n/a	n/a	1
69.700987813	2.066811637000006	6.8002012390000015	n/a	5	ITI_onset	n/a	n/a	n/a
71.76779945	1.2117135019999987	4.7333896019999955	1.2117135019999987	6	stim1	n/a	n/a	n/a
72.979512952	0.004949972000002163	3.521676099999997	n/a	6	choice1	1	n/a	n/a
76.501189052	0.5754838730000047	5.5833723909999975	0.5754838730000047	6	stim2	n/a	0	n/a
77.076672925	0.007888517999992474	5.007888517999993	n/a	6	choice2	n/a	0	n/a
82.084561443	1.5	n/a	n/a	6	outcome	n/a	n/a	0
83.584561443	6.566874353000006	9.266909544999988	n/a	6	ITI_onset	n/a	n/a	n/a
90.151435796	0.6692510469999979	2.700035191999981	0.6692510469999979	7	stim1	n/a	n/a	n/a
90.820686843	0.014067481999998563	2.0307841449999833	n/a	7	choice1	0	n/a	n/a
92.85147098799997	0.8392856520000059	3.8499680320000187	0.8392856520000059	7	stim2	n/a	0	n/a
93.69075663999999	0.010682380000012927	3.010682380000013	n/a	7	choice2	n/a	0	n/a
96.70143902	1.5	n/a	n/a	7	outcome	n/a	n/a	1
98.20143902	4.0668530209999885	9.000239799999996	n/a	7	ITI_onset	n/a	n/a	n/a
102.268292041	0.9072616380000109	4.933386779000008	0.9072616380000109	8	stim1	n/a	n/a	n/a
103.175553679	0.009449540000001434	4.026125140999997	n/a	8	choice1	1	n/a	n/a
107.20167882	0.6889011219999956	2.7000480240000035	0.6889011219999956	8	stim2	n/a	0	n/a
107.890579942	0.011146902000007685	2.0111469020000077	n/a	8	choice2	n/a	0	n/a
109.90172684400001	1.5	n/a	n/a	8	outcome	n/a	n/a	1
111.40172684400001	5.566811796999973	12.033548014	n/a	8	ITI_onset	n/a	n/a	n/a
116.96853864099997	0.941517181000032	6.466736217000027	0.941517181000032	9	stim1	n/a	n/a	n/a
117.91005582200002	0.008447033999982523	5.525219035999995	n/a	9	choice1	1	n/a	n/a
123.435274858	0.4820734319999756	4.499973853999982	0.4820734319999756	9	stim2	n/a	0	n/a
123.91734828999996	0.017900422000006074	4.017900422000006	n/a	9	choice2	n/a	0	n/a
127.93524871199999	1.5	n/a	n/a	9	outcome	n/a	n/a	1
129.435248712	4.066872269000014	8.600261486000033	n/a	9	ITI_onset	n/a	n/a	n/a
133.50212098100002	0.5090612089999776	4.5333892170000185	0.5090612089999776	10	stim1	n/a	n/a	n/a
134.01118219	0.007553279000043403	4.02432800800004	n/a	10	choice1	1	n/a	n/a
138.03551019800003	0.08611925699998392	3.1000892149999855	0.08611925699998392	10	stim2	n/a	0	n/a
138.121629455	0.013969958000001498	3.0139699580000014	n/a	10	choice2	n/a	0	n/a
141.13559941300002	1.5	n/a	n/a	10	outcome	n/a	n/a	1
142.63559941300002	4.566764640000009	9.516805525999981	n/a	10	ITI_onset	n/a	n/a	n/a
147.20236405300003	0.9137630079999799	4.950040885999973	0.9137630079999799	11	stim1	n/a	n/a	n/a
148.11612706100001	0.01959618200000841	4.036277877999994	n/a	11	choice1	1	n/a	n/a
152.152404939	0.5151080019999936	2.5334180890000133	0.5151080019999936	11	stim2	n/a	0	n/a
152.66751294099998	0.018310087000019848	2.0183100870000197	n/a	11	choice2	n/a	0	n/a
154.68582302800002	1.5	n/a	n/a	11	outcome	n/a	n/a	0
156.18582302800002	3.566760148000001	7.583481624000007	n/a	11	ITI_onset	n/a	n/a	n/a
159.752583176	0.48489712999999757	4.016721476000006	0.48489712999999757	12	stim1	n/a	n/a	n/a
160.237480306	0.014996203999995487	3.5318243460000085	n/a	12	choice1	1	n/a	n/a
163.76930465200002	0.5141115920000011	3.0332531969999836	0.5141115920000011	12	stim2	n/a	0	n/a
164.28341624400002	0.01914160499998252	2.5191416049999824	n/a	12	choice2	n/a	0	n/a
166.802557849	1.5	n/a	n/a	12	outcome	n/a	n/a	1
168.302557849	7.566921993000025	13.866984003999999	n/a	12	ITI_onset	n/a	n/a	n/a
175.86947984200003	0.2731871569999785	6.300062010999973	0.2731871569999785	13	stim1	n/a	n/a	n/a
176.142666999	0.010160115000006045	6.026874853999995	n/a	13	choice1	1	n/a	n/a
182.169541853	0.46721998500000333	2.483339636999997	0.46721998500000333	13	stim2	n/a	1	n/a
182.636761838	0.016119651999993947	2.0161196519999938	n/a	13	choice2	n/a	1	n/a
184.65288149	1.5	n/a	n/a	13	outcome	n/a	n/a	0
186.15288149	3.5668255920000083	9.066852379000018	n/a	13	ITI_onset	n/a	n/a	n/a
189.719707082	0.4662392939999991	5.50002678700001	0.4662392939999991	14	stim1	n/a	n/a	n/a
190.185946376	0.01703586199998972	5.033787493000011	n/a	14	choice1	1	n/a	n/a
195.219733869	0.2908854739999806	3.799984696999978	0.2908854739999806	14	stim2	n/a	0	n/a
195.510619343	0.009099222999997438	3.5090992229999975	n/a	14	choice2	n/a	0	n/a
199.019718566	1.5	n/a	n/a	14	outcome	n/a	n/a	0
200.519718566	5.566937392000022	11.167016822000035	n/a	14	ITI_onset	n/a	n/a	n/a
206.08665595800002	1.555535772000032	5.6000794300000125	1.555535772000032	15	stim1	n/a	n/a	n/a
207.64219173000004	0.0281251409999677	4.044543657999981	n/a	15	choice1	0	n/a	n/a
211.68673538800002	0.3173782539999811	2.333297725000011	0.3173782539999811	15	stim2	n/a	1	n/a
212.004113642	0.01591947100003017	2.0159194710000303	n/a	15	choice2	n/a	1	n/a
214.02003311300004	1.5	n/a	n/a	15	outcome	n/a	n/a	1
215.52003311300004	7.566847084999987	12.150276578999968	n/a	15	ITI_onset	n/a	n/a	n/a
223.08688019800002	0.5597777359999891	4.583429493999982	0.5597777359999891	16	stim1	n/a	n/a	n/a
223.64665793400002	0.0069415100000042	4.023651757999993	n/a	16	choice1	0	n/a	n/a
227.67030969200002	0.41712453100000857	5.933325025000028	0.41712453100000857	16	stim2	n/a	1	n/a
228.087434223	0.016200494000018807	5.516200494000019	n/a	16	choice2	n/a	1	n/a
233.60363471700003	1.5	n/a	n/a	16	outcome	n/a	n/a	0
235.10363471700003	8.066922793999984	10.433694908999984	n/a	16	ITI_onset	n/a	n/a	n/a
243.17055751100003	0.3414371089999913	2.366772115	0.3414371089999913	17	stim1	n/a	n/a	n/a
243.51199462	0.008586903000017628	2.0253350060000086	n/a	17	choice1	1	n/a	n/a
245.53732962600003	0.5313383299999986	7.0500006569999965	0.5313383299999986	17	stim2	n/a	1	n/a
246.068667956	0.018662326999998185	6.518662326999999	n/a	17	choice2	n/a	1	n/a
252.58733028300003	1.5	n/a	n/a	17	outcome	n/a	n/a	0
254.08733028300003	7.566941561999964	10.750273082999978	n/a	17	ITI_onset	n/a	n/a	n/a
261.654271845	0.6553661010000505	3.1833315210000146	0.6553661010000505	18	stim1	n/a	n/a	n/a
262.309637946	0.011256936999969184	2.527965419999964	n/a	18	choice1	1	n/a	n/a
264.837603366	0.34896536600001854	4.36667298600002	0.34896536600001854	18	stim2	n/a	0	n/a
265.186568732	0.017707620000001045	4.017707620000001	n/a	18	choice2	n/a	0	n/a
269.204276352	1.5	n/a	n/a	18	outcome	n/a	n/a	0
270.704276352	3.066851416999998	8.600242878999968	n/a	18	ITI_onset	n/a	n/a	n/a
273.77112776900003	0.5003232079999871	5.533391461999971	0.5003232079999871	19	stim1	n/a	n/a	n/a
274.271450977	0.016312773999990895	5.033068253999984	n/a	19	choice1	1	n/a	n/a
279.304519231	0.5725209480000194	4.083323309000058	0.5725209480000194	19	stim2	n/a	0	n/a
279.877040179	0.010802361000038218	3.5108023610000383	n/a	19	choice2	n/a	0	n/a
283.38784254	1.5	n/a	n/a	19	outcome	n/a	n/a	0
284.88784254	6.066854463999975	11.966945859999978	n/a	19	ITI_onset	n/a	n/a	n/a
290.954697004	0.3768561989999725	5.900091396000003	0.3768561989999725	20	stim1	n/a	n/a	n/a
291.331553203	0.006462233000027482	5.523235197000031	n/a	20	choice1	1	n/a	n/a
296.8547884	0.5177129139999742	6.0333824800000295	0.5177129139999742	20	stim2	n/a	0	n/a
297.372501314	0.015669566000055056	5.515669566000055	n/a	20	choice2	n/a	0	n/a
302.88817088	1.5	n/a	n/a	20	outcome	n/a	n/a	0
304.38817088	3.5668145249999945	6.283491312999977	n/a	20	ITI_onset	n/a	n/a	n/a
307.95498540500006	0.693094001999998	2.7166767879999827	0.693094001999998	21	stim1	n/a	n/a	n/a
308.648079407	0.0068699719999567605	2.0235827859999844	n/a	21	choice1	1	n/a	n/a
310.67166219300003	0.5229714970000204	3.033337568000017	0.5229714970000204	21	stim2	n/a	1	n/a
311.19463369000005	0.010366070999996736	2.510366070999997	n/a	21	choice2	n/a	1	n/a
313.704999761	1.5	n/a	n/a	21	outcome	n/a	n/a	1
315.204999761	8.066868258000003	12.46701467199996	n/a	21	ITI_onset	n/a	n/a	n/a
323.27186801900007	0.36850444399996196	4.400146413999959	0.36850444399996196	22	stim1	n/a	n/a	n/a
323.640372463	0.014775492000044323	4.031641969999997	n/a	22	choice1	1	n/a	n/a
327.672014433	0.6954451589999954	6.699958199999994	0.6954451589999954	22	stim2	n/a	0	n/a
328.367459592	0.004513040999998339	6.004513040999998	n/a	22	choice2	n/a	0	n/a
334.371972633	1.5	n/a	n/a	22	outcome	n/a	n/a	0
335.871972633	5.566903226000024	9.983797742000025	n/a	22	ITI_onset	n/a	n/a	n/a
341.438875859	0.3931718600000022	4.416894516	0.3931718600000022	23	stim1	n/a	n/a	n/a
341.832047719	0.006854572999989614	4.023722655999998	n/a	23	choice1	1	n/a	n/a
345.855770375	0.3817612599999993	2.8997986640000017	0.3817612599999993	23	stim2	n/a	1	n/a
346.23753163500004	0.018037404000002425	2.5180374040000024	n/a	23	choice2	n/a	1	n/a
348.755569039	1.5	n/a	n/a	23	outcome	n/a	n/a	0
350.255569039	2.566864570000034	5.100248653999995	n/a	23	ITI_onset	n/a	n/a	n/a
352.82243360900003	0.5042087599999504	2.533384083999961	0.5042087599999504	24	stim1	n/a	n/a	n/a
353.326642369	0.012424975999980234	2.0291753240000108	n/a	24	choice1	1	n/a	n/a
355.355817693	0.3356126299999887	3.349987760999997	0.3356126299999887	24	stim2	n/a	0	n/a
355.691430323	0.014375131000007969	3.014375131000008	n/a	24	choice2	n/a	0	n/a
358.70580545400003	1.5	n/a	n/a	24	outcome	n/a	n/a	0
360.20580545400003	3.0667587050000438	10.050203084000037	n/a	24	ITI_onset	n/a	n/a	n/a
363.27256415900007	0.45689754499995616	6.983444378999994	0.45689754499995616	25	stim1	n/a	n/a	n/a
363.729461704	0.009798251000000164	6.526546834000037	n/a	25	choice1	1	n/a	n/a
370.25600853800006	0.46798028599994723	2.983303065999935	0.46798028599994723	25	stim2	n/a	1	n/a
370.723988824	0.015322779999987688	2.5153227799999875	n/a	25	choice2	n/a	1	n/a
373.23931160399997	1.5	n/a	n/a	25	outcome	n/a	n/a	0
374.73931160399997	1.0	1.0	n/a	25	ITI_onset	n/a	n/a	n/a
