onset	duration	duration2fb	response_time	trial	event	choice1	state	reward
0.0	0.8659003999999986	4.400093299999996	0.8659003999999986	1	stim1	n/a	n/a	n/a
0.865900400000001	0.017789099999998143	3.534192899999998	n/a	1	choice1	1	n/a	n/a
4.400093299999998	0.5347764000000025	4.549974000000002	0.5347764000000025	1	stim2	n/a	0	n/a
4.9348697	0.015197599999999511	4.0151976	n/a	1	choice2	n/a	0	n/a
8.950067299999997	1.5	n/a	n/a	1	outcome	n/a	n/a	1
10.450067299999997	5.066836900000002	7.983547700000003	n/a	1	ITI_onset	n/a	n/a	n/a
15.516904200000003	0.38392299999999524	2.9167108000000006	0.38392299999999524	2	stim1	n/a	n/a	n/a
15.900827199999998	0.01606810000000405	2.5327878000000057	n/a	2	choice1	1	n/a	n/a
18.433615	0.5671706999999951	3.583318099999997	0.5671706999999951	2	stim2	n/a	0	n/a
19.000785699999998	0.016147400000001654	3.0161474000000017	n/a	2	choice2	n/a	0	n/a
22.0169331	1.5	n/a	n/a	2	outcome	n/a	n/a	1
23.5169331	4.0668217	6.5835115	n/a	2	ITI_onset	n/a	n/a	n/a
27.583754799999998	0.48618819999999685	2.5166898	0.48618819999999685	3	stim1	n/a	n/a	n/a
28.069943	0.013846700000001873	2.030501600000003	n/a	3	choice1	1	n/a	n/a
30.1004446	0.6385020999999979	4.649985000000001	0.6385020999999979	3	stim2	n/a	1	n/a
30.738946699999996	0.0114829000000027	4.0114829000000025	n/a	3	choice2	n/a	1	n/a
34.750429600000004	1.5	n/a	n/a	3	outcome	n/a	n/a	0
36.250429600000004	3.066820599999999	5.550189600000005	n/a	3	ITI_onset	n/a	n/a	n/a
39.317250200000004	0.45657609999999843	2.483369000000006	0.45657609999999843	4	stim1	n/a	n/a	n/a
39.773826299999996	0.01009100000000035	2.026792900000008	n/a	4	choice1	0	n/a	n/a
41.8006192	0.5100458999999974	5.016664599999989	0.5100458999999974	4	stim2	n/a	1	n/a
42.310665099999994	0.006618699999991804	4.506618699999992	n/a	4	choice2	n/a	1	n/a
46.8172838	1.5	n/a	n/a	4	outcome	n/a	n/a	0
48.3172838	6.066862300000008	8.5335775	n/a	4	ITI_onset	n/a	n/a	n/a
54.384146099999995	0.44463889999999084	2.4667151999999914	0.44463889999999084	5	stim1	n/a	n/a	n/a
54.828784999999996	0.0053620000000082655	2.0220763000000006	n/a	5	choice1	1	n/a	n/a
56.85086129999999	0.5330690000000031	2.5500255000000034	0.5330690000000031	5	stim2	n/a	0	n/a
57.38393029999999	0.016956500000000232	2.0169565	n/a	5	choice2	n/a	0	n/a
59.400886799999995	1.5	n/a	n/a	5	outcome	n/a	n/a	1
60.900886799999995	2.566752800000002	5.000074099999998	n/a	5	ITI_onset	n/a	n/a	n/a
63.4676396	0.396087400000004	2.433321299999996	0.396087400000004	6	stim1	n/a	n/a	n/a
63.863727	0.020551299999991897	2.037233899999992	n/a	6	choice1	1	n/a	n/a
65.90096089999999	0.5108418999999994	8.516684999999997	0.5108418999999994	6	stim2	n/a	0	n/a
66.41180279999999	0.00584309999999823	8.005843099999998	n/a	6	choice2	n/a	0	n/a
74.4176459	1.5	n/a	n/a	6	outcome	n/a	n/a	1
75.9176459	4.0668986	8.883612700000013	n/a	6	ITI_onset	n/a	n/a	n/a
79.98454449999998	1.2941491999999999	4.816714100000012	1.2941491999999999	7	stim1	n/a	n/a	n/a
81.27869369999999	0.0058399000000063095	3.5225649000000123	n/a	7	choice1	1	n/a	n/a
84.8012586	0.5660812000000005	7.583341499999995	0.5660812000000005	7	stim2	n/a	0	n/a
85.3673398	0.01726029999999446	7.017260299999995	n/a	7	choice2	n/a	0	n/a
92.3846001	1.5	n/a	n/a	7	outcome	n/a	n/a	1
93.8846001	7.566937399999995	11.133641000000003	n/a	7	ITI_onset	n/a	n/a	n/a
101.45153749999999	1.0303322000000044	3.566703600000008	1.0303322000000044	8	stim1	n/a	n/a	n/a
102.48186969999999	0.01969680000000517	2.5363714000000037	n/a	8	choice1	1	n/a	n/a
105.0182411	0.628590400000001	5.633328999999983	0.628590400000001	8	stim2	n/a	0	n/a
105.6468315	0.00473859999999695	5.004738599999983	n/a	8	choice2	n/a	0	n/a
110.65157009999997	1.5	n/a	n/a	8	outcome	n/a	n/a	1
112.15157009999997	3.5668561000000043	7.2502147000000114	n/a	8	ITI_onset	n/a	n/a	n/a
115.7184262	0.6598071000000054	3.6833586000000067	0.6598071000000054	9	stim1	n/a	n/a	n/a
116.37823329999999	0.00683540000001085	3.0235515000000013	n/a	9	choice1	1	n/a	n/a
119.40178479999999	0.7084696999999869	3.716711100000015	0.7084696999999869	9	stim2	n/a	0	n/a
120.11025449999998	0.00824140000002808	3.008241400000028	n/a	9	choice2	n/a	0	n/a
123.11849590000001	1.5	n/a	n/a	9	outcome	n/a	n/a	0
124.61849590000001	4.066791399999987	7.6501434999999764	n/a	9	ITI_onset	n/a	n/a	n/a
128.6852873	0.5604910999999847	3.5833520999999893	0.5604910999999847	10	stim1	n/a	n/a	n/a
129.2457784	0.006148500000010245	3.0228610000000042	n/a	10	choice1	0	n/a	n/a
132.2686394	0.6045864000000002	8.116675000000017	0.6045864000000002	10	stim2	n/a	0	n/a
132.8732258	0.012088600000017323	7.512088600000017	n/a	10	choice2	n/a	0	n/a
140.38531440000003	1.5	n/a	n/a	10	outcome	n/a	n/a	1
141.88531440000003	5.066881699999998	9.933624899999995	n/a	10	ITI_onset	n/a	n/a	n/a
146.9521961	0.33742619999998713	4.8667431999999975	0.33742619999998713	11	stim1	n/a	n/a	n/a
147.2896223	0.012565900000015973	4.52931700000001	n/a	11	choice1	1	n/a	n/a
151.8189393	0.4946307000000088	5.499975299999991	0.4946307000000088	11	stim2	n/a	0	n/a
152.31357000000003	0.005344599999982165	5.005344599999982	n/a	11	choice2	n/a	0	n/a
157.3189146	1.5	n/a	n/a	11	outcome	n/a	n/a	1
158.8189146	2.066849199999997	4.700178299999999	n/a	11	ITI_onset	n/a	n/a	n/a
160.8857638	0.6069716000000189	2.6333291000000028	0.6069716000000189	12	stim1	n/a	n/a	n/a
161.49273540000002	0.00966589999999269	2.0263574999999836	n/a	12	choice1	1	n/a	n/a
163.5190929	0.7663932999999961	7.2833667000000135	0.7663932999999961	12	stim2	n/a	0	n/a
164.2854862	0.016973400000017135	6.516973400000017	n/a	12	choice2	n/a	0	n/a
170.80245960000002	1.5	n/a	n/a	12	outcome	n/a	n/a	1
172.30245960000002	3.0668354999999865	9.30026939999999	n/a	12	ITI_onset	n/a	n/a	n/a
175.36929510000002	0.6965137000000104	6.233433900000003	0.6965137000000104	13	stim1	n/a	n/a	n/a
176.0658088	0.020142900000006195	5.536920199999993	n/a	13	choice1	1	n/a	n/a
181.602729	0.5269431000000041	5.033319300000003	0.5269431000000041	13	stim2	n/a	0	n/a
182.12967210000002	0.006376199999998789	4.506376199999999	n/a	13	choice2	n/a	0	n/a
186.6360483	1.5	n/a	n/a	13	outcome	n/a	n/a	0
188.1360483	3.066805800000002	7.116887199999997	n/a	13	ITI_onset	n/a	n/a	n/a
191.20285410000002	1.5218093999999982	4.050081399999995	1.5218093999999982	14	stim1	n/a	n/a	n/a
192.72466350000002	0.011539900000003399	2.528271999999997	n/a	14	choice1	0	n/a	n/a
195.2529355	0.5316380000000063	2.549981700000004	0.5316380000000063	14	stim2	n/a	1	n/a
195.78457350000002	0.018343699999997624	2.0183436999999977	n/a	14	choice2	n/a	1	n/a
197.80291720000002	1.5	n/a	n/a	14	outcome	n/a	n/a	1
199.30291720000002	2.600085699999996	5.466804199999984	n/a	14	ITI_onset	n/a	n/a	n/a
201.90300290000002	0.8284956999999995	2.866718499999988	0.8284956999999995	15	stim1	n/a	n/a	n/a
202.7314986	0.021543100000009873	2.0382227999999887	n/a	15	choice1	0	n/a	n/a
204.7697214	2.0186670000000158	4.533356100000004	2.0186670000000158	15	stim2	n/a	0	n/a
206.7883884	0.014689099999988684	2.5146890999999885	n/a	15	choice2	n/a	0	n/a
209.3030775	1.5	n/a	n/a	15	outcome	n/a	n/a	0
210.8030775	2.566800300000003	7.400172900000005	n/a	15	ITI_onset	n/a	n/a	n/a
213.3698778	0.2996883000000089	4.833372600000002	0.2996883000000089	16	stim1	n/a	n/a	n/a
213.66956610000003	0.01698189999998431	4.533684299999994	n/a	16	choice1	1	n/a	n/a
218.2032504	0.49286509999999545	2.500026199999993	0.49286509999999545	16	stim2	n/a	0	n/a
218.6961155	0.007161099999997532	2.0071610999999976	n/a	16	choice2	n/a	0	n/a
220.7032766	1.5	n/a	n/a	16	outcome	n/a	n/a	0
222.2032766	2.5667607000000134	6.216798200000019	n/a	16	ITI_onset	n/a	n/a	n/a
224.7700373	0.6214888999999967	3.650037500000006	0.6214888999999967	17	stim1	n/a	n/a	n/a
225.39152620000002	0.011865300000004936	3.028548600000009	n/a	17	choice1	0	n/a	n/a
228.4200748	0.48842939999999363	4.500009699999995	0.48842939999999363	17	stim2	n/a	1	n/a
228.9085042	0.011580300000001443	4.011580300000001	n/a	17	choice2	n/a	1	n/a
232.92008450000003	1.5	n/a	n/a	17	outcome	n/a	n/a	0
234.42008450000003	5.566871799999993	10.666938600000023	n/a	17	ITI_onset	n/a	n/a	n/a
239.98695630000003	0.5704740999999922	5.10006680000003	0.5704740999999922	18	stim1	n/a	n/a	n/a
240.5574304	0.012823399999993853	4.5295927000000376	n/a	18	choice1	0	n/a	n/a
245.0870231	0.530445299999963	4.549965999999957	0.530445299999963	18	stim2	n/a	1	n/a
245.6174684	0.019520699999993667	4.019520699999994	n/a	18	choice2	n/a	1	n/a
249.6369891	1.5	n/a	n/a	18	outcome	n/a	n/a	1
251.1369891	2.5667749000000186	6.36686460000003	n/a	18	ITI_onset	n/a	n/a	n/a
253.70376400000004	0.769700599999982	3.8000897000000116	0.769700599999982	19	stim1	n/a	n/a	n/a
254.4734646	0.013665800000017042	3.0303891000000296	n/a	19	choice1	0	n/a	n/a
257.50385370000004	0.8871175999999977	3.8999964000000036	0.8871175999999977	19	stim2	n/a	1	n/a
258.39097130000005	0.012878800000005868	3.012878800000006	n/a	19	choice2	n/a	1	n/a
261.4038501	1.5	n/a	n/a	19	outcome	n/a	n/a	1
262.9038501	2.566794099999999	5.783928599999984	n/a	19	ITI_onset	n/a	n/a	n/a
265.47064420000004	0.6932897999999695	3.2171344999999856	0.6932897999999695	20	stim1	n/a	n/a	n/a
266.163934	0.00670240000000922	2.523844700000016	n/a	20	choice1	0	n/a	n/a
268.6877787	0.5936297999999952	2.5996006000000054	0.5936297999999952	20	stim2	n/a	1	n/a
269.2814085	0.005970800000010058	2.0059708000000103	n/a	20	choice2	n/a	1	n/a
271.2873793	1.5	n/a	n/a	20	outcome	n/a	n/a	1
272.7873793	5.066777799999982	9.683502500000003	n/a	20	ITI_onset	n/a	n/a	n/a
277.8541571	0.5930900000000257	4.616724700000021	0.5930900000000257	21	stim1	n/a	n/a	n/a
278.4472471	0.00690659999998752	4.023634699999995	n/a	21	choice1	0	n/a	n/a
282.47088180000003	0.5076009000000195	5.016657899999991	0.5076009000000195	21	stim2	n/a	0	n/a
282.97848270000003	0.009056999999971595	4.509056999999972	n/a	21	choice2	n/a	0	n/a
287.4875397	1.5	n/a	n/a	21	outcome	n/a	n/a	1
288.9875397	3.066819599999988	5.5835142999999805	n/a	21	ITI_onset	n/a	n/a	n/a
292.0543593	0.48296059999999125	2.516694699999993	0.48296059999999125	22	stim1	n/a	n/a	n/a
292.5373199	0.017024700000009035	2.0337341000000015	n/a	22	choice1	0	n/a	n/a
294.571054	0.5698896999999997	3.5833482000000076	0.5698896999999997	22	stim2	n/a	1	n/a
295.1409437	0.013458500000007916	3.013458500000008	n/a	22	choice2	n/a	1	n/a
298.1544022	1.5	n/a	n/a	22	outcome	n/a	n/a	0
299.6544022	4.066825799999991	11.900247100000037	n/a	22	ITI_onset	n/a	n/a	n/a
303.721228	0.30567950000002747	7.833421300000046	0.30567950000002747	23	stim1	n/a	n/a	n/a
304.0269075	0.010970800000010059	7.527741800000018	n/a	23	choice1	1	n/a	n/a
311.55464930000005	0.5345433999999659	3.0500124999999536	0.5345433999999659	23	stim2	n/a	0	n/a
312.0891927	0.01546909999998752	2.5154690999999874	n/a	23	choice2	n/a	0	n/a
314.6046618	1.5	n/a	n/a	23	outcome	n/a	n/a	1
316.1046618	2.5667723000000113	7.100155599999998	n/a	23	ITI_onset	n/a	n/a	n/a
318.6714341	0.5107847000000183	4.533383299999986	0.5107847000000183	24	stim1	n/a	n/a	n/a
319.18221880000004	0.00590470000001369	4.022598599999968	n/a	24	choice1	1	n/a	n/a
323.20481739999997	0.4300709000000497	5.950008600000001	0.4300709000000497	24	stim2	n/a	0	n/a
323.63488830000006	0.01993769999995129	5.519937699999951	n/a	24	choice2	n/a	0	n/a
329.154826	1.5	n/a	n/a	24	outcome	n/a	n/a	0
330.654826	8.066843300000007	12.700304900000047	n/a	24	ITI_onset	n/a	n/a	n/a
338.7216693	0.5996701999999932	4.633461600000039	0.5996701999999932	25	stim1	n/a	n/a	n/a
339.32133949999997	0.017055900000035762	4.033791400000045	n/a	25	choice1	0	n/a	n/a
343.3551309	0.554639899999951	6.066695599999977	0.554639899999951	25	stim2	n/a	1	n/a
343.9097708	0.012055700000026263	5.512055700000026	n/a	25	choice2	n/a	1	n/a
349.4218265	1.5	n/a	n/a	25	outcome	n/a	n/a	1
350.9218265	1.0	1.0	n/a	25	ITI_onset	n/a	n/a	n/a
