onset	duration	duration2fb	response_time	trial	event	choice1	state	reward
0.0	0.41764519299999664	8.466787544999999	0.41764519299999664	1	stim1	n/a	n/a	n/a
0.4176451929999949	0.016109385000003387	8.049142352000002	n/a	1	choice1	1	n/a	n/a
8.466787544999999	0.6289702040000011	2.6499913860000017	0.6289702040000011	1	stim2	n/a	1	n/a
9.095757749	0.02102118200000041	2.0210211820000006	n/a	1	choice2	n/a	1	n/a
11.116778930999999	1.5	n/a	n/a	1	outcome	n/a	n/a	1
12.616778930999999	5.066851737999998	11.616956976999994	n/a	1	ITI_onset	n/a	n/a	n/a
17.683630668999996	0.5241655219999957	6.550105238999997	0.5241655219999957	2	stim1	n/a	n/a	n/a
18.207796190999993	0.009086071000005178	6.025939717000001	n/a	2	choice1	1	n/a	n/a
24.233735907999993	0.4785410830000037	8.483319747000008	0.4785410830000037	2	stim2	n/a	1	n/a
24.712276990999996	0.004778664000004937	8.004778664000005	n/a	2	choice2	n/a	1	n/a
32.717055655	1.5	n/a	n/a	2	outcome	n/a	n/a	1
34.217055655	5.566952629999999	8.100304312999993	n/a	2	ITI_onset	n/a	n/a	n/a
39.784008285000006	0.5007450620000018	2.5333516829999936	0.5007450620000018	3	stim1	n/a	n/a	n/a
40.284753347000006	0.015903109999984736	2.032606620999992	n/a	3	choice1	1	n/a	n/a
42.317359968	0.5163472600000023	5.533294580000009	0.5163472600000023	3	stim2	n/a	1	n/a
42.833707228	0.016947319999999308	5.016947320000007	n/a	3	choice2	n/a	1	n/a
47.850654548	1.5	n/a	n/a	3	outcome	n/a	n/a	1
49.350654548	5.0668761179999855	10.23364528099999	n/a	3	ITI_onset	n/a	n/a	n/a
54.417530666	0.6329888890000002	5.166769163000004	0.6329888890000002	4	stim1	n/a	n/a	n/a
55.05051955499999	0.01706922499999928	4.533780274000004	n/a	4	choice1	1	n/a	n/a
59.584299828999995	0.518488612999994	8.533365799000007	0.518488612999994	4	stim2	n/a	1	n/a
60.102788441999984	0.014877186000012444	8.014877186000012	n/a	4	choice2	n/a	1	n/a
68.117665628	1.5	n/a	n/a	4	outcome	n/a	n/a	1
69.617665628	3.566866653999998	10.150282353999996	n/a	4	ITI_onset	n/a	n/a	n/a
73.18453228199999	0.5526273839999921	6.583415699999998	0.5526273839999921	5	stim1	n/a	n/a	n/a
73.737159666	0.014032514000005904	6.030788316000006	n/a	5	choice1	0	n/a	n/a
79.76794798200001	0.5637826249999925	6.583282244999995	0.5637826249999925	5	stim2	n/a	0	n/a
80.331730607	0.019499620000002323	6.019499620000002	n/a	5	choice2	n/a	0	n/a
86.351230227	1.5	n/a	n/a	5	outcome	n/a	n/a	0
87.851230227	2.566940759999998	5.5836195690000165	n/a	5	ITI_onset	n/a	n/a	n/a
90.418170987	0.4954014660000103	3.016678809000019	0.4954014660000103	6	stim1	n/a	n/a	n/a
90.913572453	0.004542553999999655	2.521277343000009	n/a	6	choice1	1	n/a	n/a
93.43484979600001	0.4983720909999829	3.0166882729999926	0.4983720909999829	6	stim2	n/a	1	n/a
93.933221887	0.018316182000009576	2.5183161820000097	n/a	6	choice2	n/a	1	n/a
96.45153806900001	1.5	n/a	n/a	6	outcome	n/a	n/a	1
97.95153806900001	3.566792387999987	8.483612317999984	n/a	6	ITI_onset	n/a	n/a	n/a
101.51833045699999	0.3853715640000155	4.916819929999998	0.3853715640000155	7	stim1	n/a	n/a	n/a
101.90370202100002	0.014646208999984082	4.5314483659999825	n/a	7	choice1	1	n/a	n/a
106.435150387	0.4654555760000076	5.983277402000022	0.4654555760000076	7	stim2	n/a	1	n/a
106.900605963	0.01782182600001397	5.517821826000014	n/a	7	choice2	n/a	1	n/a
112.41842778899999	1.5	n/a	n/a	7	outcome	n/a	n/a	0
113.91842778899999	5.566864568999997	9.433610538000009	n/a	7	ITI_onset	n/a	n/a	n/a
119.48529235799998	0.33295414600000367	3.8667459690000103	0.33295414600000367	8	stim1	n/a	n/a	n/a
119.818246504	0.017062488000025043	3.5337918230000067	n/a	8	choice1	1	n/a	n/a
123.352038327	0.5076634750000085	3.016638547999988	0.5076634750000085	8	stim2	n/a	0	n/a
123.85970180199999	0.008975072999979601	2.50897507299998	n/a	8	choice2	n/a	0	n/a
126.36867687499998	1.5	n/a	n/a	8	outcome	n/a	n/a	0
127.86867687499998	4.066846444000024	7.050174051000009	n/a	8	ITI_onset	n/a	n/a	n/a
131.935523319	0.45020658099997674	2.9833276069999846	0.45020658099997674	9	stim1	n/a	n/a	n/a
132.38572989999997	0.01642345000000205	2.533121026000008	n/a	9	choice1	1	n/a	n/a
134.918850926	0.6317037569999812	4.150042394000018	0.6317037569999812	9	stim2	n/a	1	n/a
135.55055468299997	0.018338637000037124	3.518338637000037	n/a	9	choice2	n/a	1	n/a
139.06889332	1.5	n/a	n/a	9	outcome	n/a	n/a	0
140.56889332	3.5668145249999945	10.016917485999992	n/a	9	ITI_onset	n/a	n/a	n/a
144.135707845	0.4264431829999958	6.450102960999997	0.4264431829999958	10	stim1	n/a	n/a	n/a
144.562151028	0.006885049000004074	6.023659778000001	n/a	10	choice1	1	n/a	n/a
150.585810806	0.4960000819999841	8.499984441000008	0.4960000819999841	10	stim2	n/a	1	n/a
151.08181088799998	0.0039843590000236875	8.003984359000023	n/a	10	choice2	n/a	1	n/a
159.08579524700002	1.5	n/a	n/a	10	outcome	n/a	n/a	0
160.58579524700002	3.066862323999987	8.500391699	n/a	10	ITI_onset	n/a	n/a	n/a
163.652657571	0.4019842879999778	5.433529375000012	0.4019842879999778	11	stim1	n/a	n/a	n/a
164.054641859	0.014672514000034425	5.031545087000035	n/a	11	choice1	1	n/a	n/a
169.086186946	0.5205122309999715	7.033262499999982	0.5205122309999715	11	stim2	n/a	0	n/a
169.60669917699997	0.012750269000011031	6.512750269000011	n/a	11	choice2	n/a	0	n/a
176.119449446	1.5	n/a	n/a	11	outcome	n/a	n/a	1
177.619449446	4.066860560000001	8.950351423000015	n/a	11	ITI_onset	n/a	n/a	n/a
181.68631000599999	0.3481447549999866	4.883490863000014	0.3481447549999866	12	stim1	n/a	n/a	n/a
182.03445476099998	0.018530156000022543	4.535346108000027	n/a	12	choice1	1	n/a	n/a
186.569800869	0.48797073199998703	4.499951077999984	0.48797073199998703	12	stim2	n/a	1	n/a
187.05777160099998	0.011980345999996643	4.011980345999997	n/a	12	choice2	n/a	1	n/a
191.069751947	1.5	n/a	n/a	12	outcome	n/a	n/a	0
192.569751947	6.566845480999997	9.666898125000007	n/a	12	ITI_onset	n/a	n/a	n/a
199.136597428	0.5741281650000019	3.1000526440000105	0.5741281650000019	13	stim1	n/a	n/a	n/a
199.71072559299998	0.00921471199998632	2.5259244790000084	n/a	13	choice1	1	n/a	n/a
202.236650072	0.5310326059999934	4.0500256800000205	0.5310326059999934	13	stim2	n/a	1	n/a
202.767682678	0.018993074000027265	3.5189930740000275	n/a	13	choice2	n/a	1	n/a
206.286675752	1.5	n/a	n/a	13	outcome	n/a	n/a	0
207.786675752	5.066846764999966	9.483559706999978	n/a	13	ITI_onset	n/a	n/a	n/a
212.853522517	0.3939048930000281	4.416712942000013	0.3939048930000281	14	stim1	n/a	n/a	n/a
213.24742741	0.006081760999950348	4.022808048999985	n/a	14	choice1	1	n/a	n/a
217.270235459	0.46689661800002796	2.483331616999989	0.46689661800002796	14	stim2	n/a	1	n/a
217.737132077	0.016434998999960954	2.016434998999961	n/a	14	choice2	n/a	1	n/a
219.753567076	1.5	n/a	n/a	14	outcome	n/a	n/a	1
221.253567076	5.566817251000029	10.133592317000002	n/a	14	ITI_onset	n/a	n/a	n/a
226.82038432700003	1.0327278839999636	4.566775065999973	1.0327278839999636	15	stim1	n/a	n/a	n/a
227.85311221099997	0.01729635300001246	3.5340471820000094	n/a	15	choice1	1	n/a	n/a
231.387159393	0.4699814480000059	2.483343486000027	0.4699814480000059	15	stim2	n/a	0	n/a
231.857140841	0.01336203800002113	2.0133620380000212	n/a	15	choice2	n/a	0	n/a
233.87050287900001	1.5	n/a	n/a	15	outcome	n/a	n/a	1
235.37050287900001	3.566795115999994	7.333475608999957	n/a	15	ITI_onset	n/a	n/a	n/a
238.937297995	0.7380851789999869	3.7666804929999635	0.7380851789999869	16	stim1	n/a	n/a	n/a
239.675383174	0.011891482999984873	3.0285953139999764	n/a	16	choice1	0	n/a	n/a
242.70397848799996	0.46452268400002505	7.483269381999999	0.46452268400002505	16	stim2	n/a	0	n/a
243.168501172	0.018746698000002653	7.0187466979999735	n/a	16	choice2	n/a	0	n/a
250.18724786999996	1.5	n/a	n/a	16	outcome	n/a	n/a	1
251.68724786999996	2.566939476000029	5.133706201000023	n/a	16	ITI_onset	n/a	n/a	n/a
254.25418734599998	0.5304503519999562	2.566766724999994	0.5304503519999562	17	stim1	n/a	n/a	n/a
254.78463769799993	0.01951213100005407	2.0363163730000378	n/a	17	choice1	0	n/a	n/a
256.820954071	0.47281284500000764	6.483228318999987	0.47281284500000764	17	stim2	n/a	0	n/a
257.293766916	0.01041547399997944	6.01041547399998	n/a	17	choice2	n/a	0	n/a
263.30418239	1.5	n/a	n/a	17	outcome	n/a	n/a	1
264.80418239	2.6002040620000333	5.116951362000021	n/a	17	ITI_onset	n/a	n/a	n/a
267.40438645200004	0.4883232939999434	2.516747299999988	0.4883232939999434	18	stim1	n/a	n/a	n/a
267.892709746	0.011684245000069496	2.0284240060000447	n/a	18	choice1	1	n/a	n/a
269.921133752	0.47301655499998013	3.483297291999974	0.47301655499998013	18	stim2	n/a	1	n/a
270.39415030699996	0.010280736999993679	3.0102807369999938	n/a	18	choice2	n/a	1	n/a
273.404431044	1.5	n/a	n/a	18	outcome	n/a	n/a	0
274.904431044	7.066832489000051	9.483564038000011	n/a	18	ITI_onset	n/a	n/a	n/a
281.971263533	0.3808813000000082	2.41673154899996	0.3808813000000082	19	stim1	n/a	n/a	n/a
282.352144833	0.019132301999954505	2.0358502489999517	n/a	19	choice1	0	n/a	n/a
284.387995082	0.5596423570000334	5.566638082999969	0.5596423570000334	19	stim2	n/a	1	n/a
284.947637439	0.00699572599993553	5.006995725999936	n/a	19	choice2	n/a	1	n/a
289.95463316499996	1.5	n/a	n/a	19	outcome	n/a	n/a	0
291.45463316499996	6.5669218320000216	9.500335879000021	n/a	19	ITI_onset	n/a	n/a	n/a
298.02155499699995	0.3999815219999873	2.9334140469999985	0.3999815219999873	20	stim1	n/a	n/a	n/a
298.42153651899997	0.01669709500001045	2.533432525000011	n/a	20	choice1	1	n/a	n/a
300.954969044	0.4213822140000411	3.433308022000012	0.4213822140000411	20	stim2	n/a	1	n/a
301.376351258	0.011925807999970856	3.0119258079999707	n/a	20	choice2	n/a	1	n/a
304.388277066	1.5	n/a	n/a	20	outcome	n/a	n/a	0
305.888277066	3.5668063440000406	8.500229694999987	n/a	20	ITI_onset	n/a	n/a	n/a
309.45508341000004	0.4025270849999506	4.933423350999947	0.4025270849999506	21	stim1	n/a	n/a	n/a
309.85761049499996	0.014130999999993947	4.5308962659999965	n/a	21	choice1	0	n/a	n/a
314.388506761	0.5106190220000572	5.516688593000057	0.5106190220000572	21	stim2	n/a	0	n/a
314.89912578300004	0.006069570999999997	5.006069571	n/a	21	choice2	n/a	0	n/a
319.90519535400006	1.5	n/a	n/a	21	outcome	n/a	n/a	0
321.40519535400006	5.566846764999966	12.00030588499998	n/a	21	ITI_onset	n/a	n/a	n/a
326.972042119	0.4013481380000012	6.433459120000014	0.4013481380000012	22	stim1	n/a	n/a	n/a
327.373390257	0.015278828999958933	6.032110982000013	n/a	22	choice1	0	n/a	n/a
333.405501239	0.4148895039999625	3.9333176460000105	0.4148895039999625	22	stim2	n/a	1	n/a
333.82039074299996	0.018428142000047956	3.518428142000048	n/a	22	choice2	n/a	1	n/a
337.338818885	1.5	n/a	n/a	22	outcome	n/a	n/a	0
338.838818885	6.066842914999929	10.41690478199994	n/a	22	ITI_onset	n/a	n/a	n/a
344.90566179999996	0.3198673550000531	4.3500618670000115	0.3198673550000531	23	stim1	n/a	n/a	n/a
345.225529155	0.013472393999982159	4.030194511999958	n/a	23	choice1	1	n/a	n/a
349.255723667	0.46992883600003554	2.4833274460000103	0.46992883600003554	23	stim2	n/a	1	n/a
349.725652503	0.013398609999974723	2.0133986099999746	n/a	23	choice2	n/a	1	n/a
351.73905111299996	1.5	n/a	n/a	23	outcome	n/a	n/a	0
353.23905111299996	6.566831046000007	12.40026719600003	n/a	23	ITI_onset	n/a	n/a	n/a
359.80588215899996	0.2986354050000082	5.833436150000023	0.2986354050000082	24	stim1	n/a	n/a	n/a
360.104517564	0.018020080999995115	5.534800745000015	n/a	24	choice1	1	n/a	n/a
365.639318309	0.42426622200000563	2.9333397819999956	0.42426622200000563	24	stim2	n/a	1	n/a
366.063584531	0.009073559999989812	2.50907355999999	n/a	24	choice2	n/a	1	n/a
368.572658091	1.5	n/a	n/a	24	outcome	n/a	n/a	1
370.072658091	5.56685301999998	7.950201286999975	n/a	24	ITI_onset	n/a	n/a	n/a
375.639511111	0.3560056830000249	2.383348266999994	0.3560056830000249	25	stim1	n/a	n/a	n/a
375.995516794	0.010643885000026785	2.0273425839999692	n/a	25	choice1	1	n/a	n/a
378.02285937799996	0.6536857400000444	5.666612451000023	0.6536857400000444	25	stim2	n/a	1	n/a
378.67654511800004	0.01292671099997824	5.012926710999978	n/a	25	choice2	n/a	1	n/a
383.689471829	1.5	n/a	n/a	25	outcome	n/a	n/a	1
385.189471829	1.0	1.0	n/a	25	ITI_onset	n/a	n/a	n/a
