onset	duration	duration2fb	response_time	trial	event	choice1	state	reward
0.0	0.3807139000000025	3.9166617000000006	0.3807139000000025	1	stim1	n/a	n/a	n/a
0.3807139000000035	0.01964809999999852	3.535947799999998	n/a	1	choice1	1	n/a	n/a
3.9166617000000024	1.2605057000000015	8.766737000000001	1.2605057000000015	1	stim2	n/a	1	n/a
5.177167400000002	0.006231299999999464	7.5062313	n/a	1	choice2	n/a	1	n/a
12.683398700000001	1.5	n/a	n/a	1	outcome	n/a	n/a	0
14.183398700000009	2.5668104999999994	6.133606199999995	n/a	1	ITI_onset	n/a	n/a	n/a
16.750209200000004	0.5357008999999961	3.5667956999999952	0.5357008999999961	2	stim1	n/a	n/a	n/a
17.2859101	0.014309500000003026	3.031094799999999	n/a	2	choice1	0	n/a	n/a
20.317004899999997	0.965024900000004	6.983317600000002	0.965024900000004	2	stim2	n/a	0	n/a
21.282029800000007	0.01829269999999815	6.018292699999998	n/a	2	choice2	n/a	0	n/a
27.300322500000004	1.5	n/a	n/a	2	outcome	n/a	n/a	0
28.800322500000004	6.066863499999999	9.2669024	n/a	2	ITI_onset	n/a	n/a	n/a
34.867186000000004	1.1418571999999985	3.2000388999999996	1.1418571999999985	3	stim1	n/a	n/a	n/a
36.009043199999994	0.04150220000000263	2.058181700000001	n/a	3	choice1	1	n/a	n/a
38.0672249	0.9174553000000014	4.933349900000001	0.9174553000000014	3	stim2	n/a	1	n/a
38.9846802	0.015894599999999627	4.015894599999999	n/a	3	choice2	n/a	1	n/a
43.000574799999995	1.5	n/a	n/a	3	outcome	n/a	n/a	0
44.500574799999995	4.066822899999999	8.033578599999993	n/a	3	ITI_onset	n/a	n/a	n/a
48.5673977	0.43968069999999715	3.9667556999999944	0.43968069999999715	4	stim1	n/a	n/a	n/a
49.0070784	0.010327499999999419	3.5270749999999973	n/a	4	choice1	1	n/a	n/a
52.534153399999994	0.4337972000000009	4.450000100000005	0.4337972000000009	4	stim2	n/a	1	n/a
52.967950599999995	0.016202900000003864	4.016202900000004	n/a	4	choice2	n/a	1	n/a
56.98415349999999	1.5	n/a	n/a	4	outcome	n/a	n/a	0
58.48415349999999	5.066815600000002	8.783556700000002	n/a	4	ITI_onset	n/a	n/a	n/a
63.5509691	0.689954700000002	3.7167410999999992	0.689954700000002	5	stim1	n/a	n/a	n/a
64.2409238	0.010102799999993294	3.026786399999997	n/a	5	choice1	0	n/a	n/a
67.2677102	0.5704302000000026	3.0833179999999993	0.5704302000000026	5	stim2	n/a	1	n/a
67.8381404	0.012887799999996787	2.512887799999997	n/a	5	choice2	n/a	1	n/a
70.3510282	1.5	n/a	n/a	5	outcome	n/a	n/a	0
71.8510282	3.0668138000000034	9.000185700000001	n/a	5	ITI_onset	n/a	n/a	n/a
74.91784200000001	0.41023309999999763	5.933371899999998	0.41023309999999763	6	stim1	n/a	n/a	n/a
75.32807509999999	0.006396500000002561	5.523138800000001	n/a	6	choice1	0	n/a	n/a
80.8512139	1.9574667000000046	5.466753499999991	1.9574667000000046	6	stim2	n/a	1	n/a
82.8086806	0.009286799999987124	3.509286799999987	n/a	6	choice2	n/a	1	n/a
86.31796739999999	1.5	n/a	n/a	6	outcome	n/a	n/a	0
87.81796739999999	5.0668323000000095	11.850278300000005	n/a	6	ITI_onset	n/a	n/a	n/a
92.8847997	1.2512667999999976	6.783445999999996	1.2512667999999976	7	stim1	n/a	n/a	n/a
94.1360665	0.015353499999997439	5.532179199999999	n/a	7	choice1	0	n/a	n/a
99.6682457	1.4447425999999977	6.449969400000001	1.4447425999999977	7	stim2	n/a	0	n/a
101.1129883	0.005226800000004005	5.005226800000004	n/a	7	choice2	n/a	0	n/a
106.1182151	1.5	n/a	n/a	7	outcome	n/a	n/a	1
107.6182151	3.566848800000007	8.366952999999993	n/a	7	ITI_onset	n/a	n/a	n/a
111.1850639	1.7740172999999921	4.800104199999987	1.7740172999999921	8	stim1	n/a	n/a	n/a
112.9590812	0.009372800000011922	3.026086899999995	n/a	8	choice1	0	n/a	n/a
115.9851681	0.6260935999999929	3.133347999999998	0.6260935999999929	8	stim2	n/a	0	n/a
116.61126169999999	0.007254400000005262	2.507254400000005	n/a	8	choice2	n/a	0	n/a
119.11851609999998	1.5	n/a	n/a	8	outcome	n/a	n/a	1
120.61851609999998	4.066767600000021	8.666877399999997	n/a	8	ITI_onset	n/a	n/a	n/a
124.6852837	1.0707814999999827	4.600109799999976	1.0707814999999827	9	stim1	n/a	n/a	n/a
125.75606519999998	0.012599099999992177	3.5293282999999938	n/a	9	choice1	0	n/a	n/a
129.2853935	1.753802400000015	7.2666983000000185	1.753802400000015	9	stim2	n/a	0	n/a
131.0391959	0.012895900000003166	5.512895900000003	n/a	9	choice2	n/a	0	n/a
136.55209180000003	1.5	n/a	n/a	9	outcome	n/a	n/a	1
138.05209180000003	2.0667939999999945	9.700262900000002	n/a	9	ITI_onset	n/a	n/a	n/a
140.11888580000002	0.6082951999999932	7.6334689000000076	0.6082951999999932	10	stim1	n/a	n/a	n/a
140.727181	0.008399299999990034	7.025173700000014	n/a	10	choice1	0	n/a	n/a
147.7523547	0.5523561000000046	5.066673099999986	0.5523561000000046	10	stim2	n/a	1	n/a
148.30471080000004	0.014316999999980907	4.514316999999981	n/a	10	choice2	n/a	1	n/a
152.81902780000001	1.5	n/a	n/a	10	outcome	n/a	n/a	0
154.31902780000001	7.066909899999999	10.050305599999993	n/a	10	ITI_onset	n/a	n/a	n/a
161.3859377	0.4530978999999934	2.9833956999999938	0.4530978999999934	11	stim1	n/a	n/a	n/a
161.8390356	0.013575000000011642	2.5302978000000005	n/a	11	choice1	1	n/a	n/a
164.3693334	0.8147930000000051	3.3332954000000026	0.8147930000000051	11	stim2	n/a	0	n/a
165.1841264	0.018502399999997577	2.5185023999999974	n/a	11	choice2	n/a	0	n/a
167.7026288	1.5	n/a	n/a	11	outcome	n/a	n/a	0
169.2026288	4.066803000000014	6.6838485999999975	n/a	11	ITI_onset	n/a	n/a	n/a
173.2694318	0.5836607999999833	2.617045599999983	0.5836607999999833	12	stim1	n/a	n/a	n/a
173.8530926	0.016383800000010523	2.0333848	n/a	12	choice1	0	n/a	n/a
175.8864774	0.717474900000001	6.232995000000025	0.717474900000001	12	stim2	n/a	0	n/a
176.6039523	0.015520100000023376	5.515520100000024	n/a	12	choice2	n/a	0	n/a
182.11947240000003	1.5	n/a	n/a	12	outcome	n/a	n/a	1
183.61947240000003	2.566862599999993	5.000232299999974	n/a	12	ITI_onset	n/a	n/a	n/a
186.186335	0.4098157000000065	2.433369699999981	0.4098157000000065	13	stim1	n/a	n/a	n/a
186.5961507	0.00683629999999539	2.0235539999999745	n/a	13	choice1	0	n/a	n/a
188.6197047	0.6120032000000065	4.633327300000005	0.6120032000000065	13	stim2	n/a	0	n/a
189.2317079	0.021324099999997997	4.021324099999998	n/a	13	choice2	n/a	0	n/a
193.253032	1.5	n/a	n/a	13	outcome	n/a	n/a	0
194.753032	2.566798700000014	6.4668820000000125	n/a	13	ITI_onset	n/a	n/a	n/a
197.3198307	0.3668810999999987	3.9000832999999986	0.3668810999999987	14	stim1	n/a	n/a	n/a
197.6867118	0.016413100000005214	3.5332022	n/a	14	choice1	1	n/a	n/a
201.21991400000002	0.8522056999999913	4.866666100000002	0.8522056999999913	14	stim2	n/a	0	n/a
202.0721197	0.01446040000001085	4.014460400000011	n/a	14	choice2	n/a	0	n/a
206.08658010000002	1.5	n/a	n/a	14	outcome	n/a	n/a	0
207.58658010000002	6.566844500000006	9.45025509999998	n/a	14	ITI_onset	n/a	n/a	n/a
214.15342460000002	0.3558554000000004	2.8834105999999737	0.3558554000000004	15	stim1	n/a	n/a	n/a
214.50928000000002	0.01082839999999851	2.5275551999999735	n/a	15	choice1	0	n/a	n/a
217.03683519999998	0.5852328000000271	6.100009800000029	0.5852328000000271	15	stim2	n/a	0	n/a
217.622068	0.014777000000001863	5.514777000000002	n/a	15	choice2	n/a	0	n/a
223.13684500000002	1.5	n/a	n/a	15	outcome	n/a	n/a	0
224.63684500000002	3.566829199999978	7.233579799999978	n/a	15	ITI_onset	n/a	n/a	n/a
228.2036742	0.644436400000006	3.6667505999999994	0.644436400000006	16	stim1	n/a	n/a	n/a
228.8481106	0.005577599999989615	3.0223141999999936	n/a	16	choice1	1	n/a	n/a
231.8704248	0.6462749000000185	5.666681600000011	0.6462749000000185	16	stim2	n/a	1	n/a
232.51669970000003	0.02040669999999227	5.020406699999993	n/a	16	choice2	n/a	1	n/a
237.5371064	1.5	n/a	n/a	16	outcome	n/a	n/a	0
239.0371064	8.066874299999997	12.23360779999997	n/a	16	ITI_onset	n/a	n/a	n/a
247.1039807	1.6301716000000015	4.166733499999973	1.6301716000000015	17	stim1	n/a	n/a	n/a
248.73415230000003	0.019818000000028407	2.5365618999999713	n/a	17	choice1	1	n/a	n/a
251.27071419999996	0.6380260000000125	3.650026700000046	0.6380260000000125	17	stim2	n/a	1	n/a
251.90874019999998	0.012000700000033249	3.012000700000033	n/a	17	choice2	n/a	1	n/a
254.92074090000003	1.5	n/a	n/a	17	outcome	n/a	n/a	1
256.4207409	5.566827300000004	12.05030799999996	n/a	17	ITI_onset	n/a	n/a	n/a
261.9875682	1.4586134999999776	6.483480699999957	1.4586134999999776	18	stim1	n/a	n/a	n/a
263.4461817	0.008067900000023656	5.024867199999979	n/a	18	choice1	1	n/a	n/a
268.47104889999997	0.502944300000032	6.016614500000025	0.502944300000032	18	stim2	n/a	1	n/a
268.9739932	0.013670199999993202	5.513670199999993	n/a	18	choice2	n/a	1	n/a
274.4876634	1.5	n/a	n/a	18	outcome	n/a	n/a	1
275.9876634	3.5668571999999696	6.500219299999997	n/a	18	ITI_onset	n/a	n/a	n/a
279.55452059999993	0.9115279000000446	2.9333621000000276	0.9115279000000446	19	stim1	n/a	n/a	n/a
280.4660485	0.005131599999964237	2.021834199999983	n/a	19	choice1	1	n/a	n/a
282.4878827	0.5802492000000202	4.600006099999999	0.5802492000000202	19	stim2	n/a	1	n/a
283.0681319	0.019756899999978487	4.019756899999979	n/a	19	choice2	n/a	1	n/a
287.0878888	1.5	n/a	n/a	19	outcome	n/a	n/a	1
288.5878888	2.5668329999999844	6.116871700000018	n/a	19	ITI_onset	n/a	n/a	n/a
291.15472179999995	1.0264323999999907	3.5500387000000337	1.0264323999999907	20	stim1	n/a	n/a	n/a
292.1811542	0.006850400000053923	2.523606300000043	n/a	20	choice1	1	n/a	n/a
294.7047605	0.5585125000000116	2.566664400000009	0.5585125000000116	20	stim2	n/a	1	n/a
295.263273	0.008151899999997114	2.008151899999997	n/a	20	choice2	n/a	1	n/a
297.2714249	1.5	n/a	n/a	20	outcome	n/a	n/a	1
298.7714249	4.56681329999998	11.0502647	n/a	20	ITI_onset	n/a	n/a	n/a
303.3382382	0.45690059999999355	6.48345140000002	0.45690059999999355	21	stim1	n/a	n/a	n/a
303.79513879999996	0.00975309999997262	6.0265508000000265	n/a	21	choice1	1	n/a	n/a
309.8216896	0.38808399999997345	2.8999743000000016	0.38808399999997345	21	stim2	n/a	1	n/a
310.2097736	0.011890300000028218	2.511890300000028	n/a	21	choice2	n/a	1	n/a
312.7216639	1.5	n/a	n/a	21	outcome	n/a	n/a	1
314.2216639	7.066862299999979	10.766917599999987	n/a	21	ITI_onset	n/a	n/a	n/a
321.2885262	0.665634699999995	3.7000553000000074	0.665634699999995	22	stim1	n/a	n/a	n/a
321.9541609	0.017652100000006613	3.0344206000000122	n/a	22	choice1	1	n/a	n/a
324.9885815	5.765125999999989	8.283448199999984	5.765125999999989	22	stim2	n/a	1	n/a
330.75370749999996	0.018322199999995063	2.518322199999995	n/a	22	choice2	n/a	1	n/a
333.27202969999996	1.5	n/a	n/a	22	outcome	n/a	n/a	0
334.77202969999996	2.566759399999981	6.0835467000000065	n/a	22	ITI_onset	n/a	n/a	n/a
337.3387891	0.479264599999995	3.5167873000000256	0.479264599999995	23	stim1	n/a	n/a	n/a
337.81805369999995	0.020686300000001212	3.0375227000000304	n/a	23	choice1	1	n/a	n/a
340.85557639999996	0.5071390999999712	3.5166350000000093	0.5071390999999712	23	stim2	n/a	1	n/a
341.3627155	0.009495900000038091	3.0094959000000383	n/a	23	choice2	n/a	1	n/a
344.37221139999997	1.5	n/a	n/a	23	outcome	n/a	n/a	1
345.87221139999997	6.600142799999972	10.516873599999991	n/a	23	ITI_onset	n/a	n/a	n/a
352.4723542	0.37897610000002896	3.9167308000000194	0.37897610000002896	24	stim1	n/a	n/a	n/a
352.8513303	0.021086199999961537	3.5377546999999905	n/a	24	choice1	0	n/a	n/a
356.38908499999997	0.4789777999999933	3.0000112000000083	0.4789777999999933	24	stim2	n/a	0	n/a
356.86806279999996	0.02103340000001481	2.521033400000015	n/a	24	choice2	n/a	0	n/a
359.3890962	1.5	n/a	n/a	24	outcome	n/a	n/a	0
360.8890962	4.066778799999971	8.550225899999962	n/a	24	ITI_onset	n/a	n/a	n/a
364.955875	0.456446100000001	4.4834470999999905	0.456446100000001	25	stim1	n/a	n/a	n/a
365.4123211	0.010244600000034552	4.02700099999999	n/a	25	choice1	0	n/a	n/a
369.43932209999997	0.4297075000000186	4.449938400000042	0.4297075000000186	25	stim2	n/a	0	n/a
369.8690296	0.020230900000024123	4.0202309000000245	n/a	25	choice2	n/a	0	n/a
373.8892605	1.5	n/a	n/a	25	outcome	n/a	n/a	0
375.3892605	1.0	1.0	n/a	25	ITI_onset	n/a	n/a	n/a
