onset	duration	duration2fb	response_time	trial	event	choice1	state	reward
0.0	0.27105895699999744	2.800066982999997	0.27105895699999744	1	stim1	n/a	n/a	n/a
0.2710589569999975	0.012643122000001313	2.5290080259999996	n/a	1	choice1	1	n/a	n/a
2.800066982999997	0.3946119409999992	4.416660330999999	0.3946119409999992	1	stim2	n/a	0	n/a
3.1946789239999944	0.022048389999999928	4.02204839	n/a	1	choice2	n/a	0	n/a
7.216727313999996	1.5	n/a	n/a	1	outcome	n/a	n/a	0
8.716727313999996	5.566844198000003	11.400293181000004	n/a	1	ITI_onset	n/a	n/a	n/a
14.283571512000002	0.29757964699999867	5.833448983000002	0.29757964699999867	2	stim1	n/a	n/a	n/a
14.581151158999994	0.01908385999999882	5.535869336000004	n/a	2	choice1	1	n/a	n/a
20.117020495	0.244182498999995	3.750001523999992	0.244182498999995	2	stim2	n/a	0	n/a
20.361202993999996	0.005819024999997055	3.505819024999997	n/a	2	choice2	n/a	0	n/a
23.86702201899999	1.5	n/a	n/a	2	outcome	n/a	n/a	0
25.36702201899999	4.066825271000009	9.384023041	n/a	2	ITI_onset	n/a	n/a	n/a
29.433847290000003	0.2861860479999959	5.317197769999992	0.2861860479999959	3	stim1	n/a	n/a	n/a
29.720033338	0.013804103000002215	5.031011721999995	n/a	3	choice1	0	n/a	n/a
34.751045059999996	0.3451653400000068	3.866213791000009	0.3451653400000068	3	stim2	n/a	1	n/a
35.0962104	0.021048451000002386	3.521048451000002	n/a	3	choice2	n/a	1	n/a
38.617258851	1.5	n/a	n/a	3	outcome	n/a	n/a	1
40.117258851	6.566837941999991	11.850268623000003	n/a	3	ITI_onset	n/a	n/a	n/a
46.68409679299999	0.258928476999994	5.283430681000013	0.258928476999994	4	stim1	n/a	n/a	n/a
46.943025269999985	0.0077399870000081136	5.024502204000019	n/a	4	choice1	0	n/a	n/a
51.967527474	0.4011049699999858	6.916666746999981	0.4011049699999858	4	stim2	n/a	1	n/a
52.36863244399999	0.015561776999995345	6.515561776999995	n/a	4	choice2	n/a	1	n/a
58.88419422099998	1.5	n/a	n/a	4	outcome	n/a	n/a	0
60.38419422099998	7.5669168600000125	11.350350588000001	n/a	4	ITI_onset	n/a	n/a	n/a
67.951111081	0.25653625800000734	3.7834337279999892	0.25653625800000734	5	stim1	n/a	n/a	n/a
68.207647339	0.010112635999990743	3.5268974699999815	n/a	5	choice1	0	n/a	n/a
71.734544809	0.2650894770000159	3.7833116630000005	0.2650894770000159	5	stim2	n/a	1	n/a
71.999634286	0.018222185999984503	3.5182221859999845	n/a	5	choice2	n/a	1	n/a
75.51785647199998	1.5	n/a	n/a	5	outcome	n/a	n/a	0
77.01785647199998	4.066800891000006	7.600198128000018	n/a	5	ITI_onset	n/a	n/a	n/a
81.08465736299999	0.5064068939999997	3.533397237000012	0.5064068939999997	6	stim1	n/a	n/a	n/a
81.591064257	0.0102614889999968	3.026990343000012	n/a	6	choice1	0	n/a	n/a
84.6180546	0.24093277599998691	4.250031999999992	0.24093277599998691	6	stim2	n/a	1	n/a
84.85898737599999	0.009099224000005051	4.009099224000005	n/a	6	choice2	n/a	1	n/a
88.8680866	1.5	n/a	n/a	6	outcome	n/a	n/a	0
90.3680866	6.0668398670000165	11.283576484999998	n/a	6	ITI_onset	n/a	n/a	n/a
96.43492646700003	0.18011740699998335	5.216736617999981	0.18011740699998335	7	stim1	n/a	n/a	n/a
96.61504387400001	0.019880732999998145	5.036619210999998	n/a	7	choice1	1	n/a	n/a
101.651663085	0.2672536059999838	2.2833466299999854	0.2672536059999838	7	stim2	n/a	0	n/a
101.91891669099999	0.016093024000001607	2.0160930240000017	n/a	7	choice2	n/a	0	n/a
103.93500971499998	1.5	n/a	n/a	7	outcome	n/a	n/a	1
105.43500971499998	7.067104209000012	9.833568161000033	n/a	7	ITI_onset	n/a	n/a	n/a
112.50211392399999	0.23559431200000108	2.76646395200002	0.23559431200000108	8	stim1	n/a	n/a	n/a
112.73770823599997	0.014143833000009182	2.530869640000019	n/a	8	choice1	1	n/a	n/a
115.268577876	0.4504125349999813	6.466704456999985	0.4504125349999813	8	stim2	n/a	1	n/a
115.718990411	0.01629192200000398	6.016291922000004	n/a	8	choice2	n/a	1	n/a
121.73528233299999	1.5	n/a	n/a	8	outcome	n/a	n/a	0
123.23528233299999	4.066834735000011	8.400206242999992	n/a	8	ITI_onset	n/a	n/a	n/a
127.302117068	0.3054495569999854	4.333371507999982	0.3054495569999854	9	stim1	n/a	n/a	n/a
127.60756662499998	0.011195983999990859	4.027921950999997	n/a	9	choice1	1	n/a	n/a
131.63548857599997	0.2914937149999896	2.3000254399999975	0.2914937149999896	9	stim2	n/a	0	n/a
131.92698229099997	0.00853172500000801	2.008531725000008	n/a	9	choice2	n/a	0	n/a
133.93551401599998	1.5	n/a	n/a	9	outcome	n/a	n/a	1
135.43551401599998	6.566820780000009	9.366885517999995	n/a	9	ITI_onset	n/a	n/a	n/a
142.00233479599999	0.26564157599999455	2.8000647379999863	0.26564157599999455	10	stim1	n/a	n/a	n/a
142.267976372	0.017695108999992954	2.534423161999992	n/a	10	choice1	1	n/a	n/a
144.802399534	0.3546862250000122	7.366612675000011	0.3546862250000122	10	stim2	n/a	0	n/a
145.15708575899998	0.011926449999999022	7.011926449999999	n/a	10	choice2	n/a	0	n/a
152.169012209	1.5	n/a	n/a	10	outcome	n/a	n/a	0
153.669012209	3.5668743539999994	7.866977427999983	n/a	10	ITI_onset	n/a	n/a	n/a
157.23588656299998	0.2750275970000075	4.300103073999984	0.2750275970000075	11	stim1	n/a	n/a	n/a
157.51091416	0.008356246999988798	4.025075476999977	n/a	11	choice1	1	n/a	n/a
161.53598963699997	0.592101730000024	5.600010458000034	0.592101730000024	11	stim2	n/a	1	n/a
162.128091367	0.007908728000009432	5.007908728000009	n/a	11	choice2	n/a	1	n/a
167.136000095	1.5	n/a	n/a	11	outcome	n/a	n/a	0
168.636000095	2.566779395999969	7.466923404000001	n/a	11	ITI_onset	n/a	n/a	n/a
171.20277949099997	0.37231749499999567	4.900144008000032	0.37231749499999567	12	stim1	n/a	n/a	n/a
171.57509698599998	0.01106156900001224	4.527826513000036	n/a	12	choice1	0	n/a	n/a
176.102923499	0.35966250399997807	3.866656304999982	0.35966250399997807	12	stim2	n/a	1	n/a
176.46258600299998	0.0069938010000041686	3.506993801000004	n/a	12	choice2	n/a	1	n/a
179.96957980399998	1.5	n/a	n/a	12	outcome	n/a	n/a	0
181.46957980399998	4.066799285999994	6.800183114000014	n/a	12	ITI_onset	n/a	n/a	n/a
185.53637909	0.21069527700002072	2.73338382800002	0.21069527700002072	13	stim1	n/a	n/a	n/a
185.747074367	0.0059723679999879094	2.5226885509999994	n/a	13	choice1	1	n/a	n/a
188.269762918	0.33884021799996844	5.349969474999991	0.33884021799996844	13	stim2	n/a	0	n/a
188.60860313599997	0.011129257000022335	5.0111292570000225	n/a	13	choice2	n/a	0	n/a
193.619732393	1.5	n/a	n/a	13	outcome	n/a	n/a	0
195.119732393	6.066930013000005	9.833611147999996	n/a	13	ITI_onset	n/a	n/a	n/a
201.186662406	0.24491681500000415	3.766681134999992	0.24491681500000415	14	stim1	n/a	n/a	n/a
201.431579221	0.005060648999962723	3.5217643199999875	n/a	14	choice1	1	n/a	n/a
204.95334354099998	0.3548257740000263	2.8667493369999866	0.3548257740000263	14	stim2	n/a	0	n/a
205.30816931500001	0.011923562999960268	2.5119235629999603	n/a	14	choice2	n/a	0	n/a
207.82009287799997	1.5	n/a	n/a	14	outcome	n/a	n/a	0
209.32009287799997	2.566708018000034	5.450085959000019	n/a	14	ITI_onset	n/a	n/a	n/a
211.886800896	0.34974010299996006	2.8833779409999845	0.34974010299996006	15	stim1	n/a	n/a	n/a
212.23654099899997	0.01694026200004737	2.533637838000024	n/a	15	choice1	0	n/a	n/a
214.770178837	0.3894107800000056	2.9000488900000057	0.3894107800000056	15	stim2	n/a	1	n/a
215.159589617	0.010638109999999869	2.51063811	n/a	15	choice2	n/a	1	n/a
217.670227727	1.5	n/a	n/a	15	outcome	n/a	n/a	0
219.170227727	2.5668270360000025	5.050210301999992	n/a	15	ITI_onset	n/a	n/a	n/a
221.737054763	0.45707302300000446	2.48338326599999	0.45707302300000446	16	stim1	n/a	n/a	n/a
222.194127786	0.009525889999960782	2.0263102429999855	n/a	16	choice1	1	n/a	n/a
224.220438029	0.34813224400000764	2.866621657999989	0.34813224400000764	16	stim2	n/a	0	n/a
224.568570273	0.01848941399998148	2.5184894139999816	n/a	16	choice2	n/a	0	n/a
227.087059687	1.5	n/a	n/a	16	outcome	n/a	n/a	1
228.587059687	3.5667596670000057	7.3668455780000075	n/a	16	ITI_onset	n/a	n/a	n/a
232.15381935399998	0.2651831510000338	3.800085911000002	0.2651831510000338	17	stim1	n/a	n/a	n/a
232.419002505	0.01816572599997744	3.534902759999968	n/a	17	choice1	1	n/a	n/a
235.953905265	0.4262888779999921	4.933324703999999	0.4262888779999921	17	stim2	n/a	0	n/a
236.38019414299998	0.007035826000006636	4.507035826000006	n/a	17	choice2	n/a	0	n/a
240.88722996899997	1.5	n/a	n/a	17	outcome	n/a	n/a	1
242.38722996899997	4.066864729999972	6.950268013999972	n/a	17	ITI_onset	n/a	n/a	n/a
246.45409469899994	0.3509982870000531	2.883403284	0.3509982870000531	18	stim1	n/a	n/a	n/a
246.80509298600003	0.015630427999945823	2.5324049969999467	n/a	18	choice1	1	n/a	n/a
249.33749798299993	0.359260539000039	4.866596635000024	0.359260539000039	18	stim2	n/a	0	n/a
249.69675852199998	0.007336095999984536	4.507336095999984	n/a	18	choice2	n/a	0	n/a
254.204094618	1.5	n/a	n/a	18	outcome	n/a	n/a	0
255.704094618	4.066882053999987	7.816912289	n/a	18	ITI_onset	n/a	n/a	n/a
259.77097667199996	0.2240107990000397	3.750030235000013	0.2240107990000397	19	stim1	n/a	n/a	n/a
259.994987471	0.009314802000008058	3.5260194359999733	n/a	19	choice1	1	n/a	n/a
263.52100690699996	0.2545148850000114	4.766662689000019	0.2545148850000114	19	stim2	n/a	0	n/a
263.775521792	0.012147804000007454	4.512147804000008	n/a	19	choice2	n/a	0	n/a
268.287669596	1.5	n/a	n/a	19	outcome	n/a	n/a	0
269.787669596	8.066901942999975	11.333614675999968	n/a	19	ITI_onset	n/a	n/a	n/a
277.854571539	0.24097062999999616	3.266712732999993	0.24097062999999616	20	stim1	n/a	n/a	n/a
278.095542169	0.009041159000014886	3.0257421029999967	n/a	20	choice1	1	n/a	n/a
281.12128427199997	0.2962454320000252	6.816662224000029	0.2962454320000252	20	stim2	n/a	0	n/a
281.417529704	0.020416792000003625	6.520416792000003	n/a	20	choice2	n/a	0	n/a
287.937946496	1.5	n/a	n/a	20	outcome	n/a	n/a	1
289.437946496	3.5668770799999474	6.033603031000006	n/a	20	ITI_onset	n/a	n/a	n/a
293.0048235759999	0.4447369090000284	2.4667259510000585	0.4447369090000284	21	stim1	n/a	n/a	n/a
293.44956048499995	0.0052653210000135	2.02198904200003	n/a	21	choice1	1	n/a	n/a
295.471549527	0.5243092419999884	3.0332945809999945	0.5243092419999884	21	stim2	n/a	1	n/a
295.995858769	0.008985339000006207	2.5089853390000063	n/a	21	choice2	n/a	1	n/a
298.504844108	1.5	n/a	n/a	21	outcome	n/a	n/a	0
300.004844108	3.5668190150000156	9.350266859000024	n/a	21	ITI_onset	n/a	n/a	n/a
303.571663123	0.2624572979999939	5.783447844000009	0.2624572979999939	22	stim1	n/a	n/a	n/a
303.834120421	0.004203786999976728	5.520990546000015	n/a	22	choice1	1	n/a	n/a
309.35511096700003	0.4718315119999461	6.483333541999978	0.4718315119999461	22	stim2	n/a	1	n/a
309.82694247899997	0.01150203000003239	6.011502030000033	n/a	22	choice2	n/a	1	n/a
315.838444509	1.5	n/a	n/a	22	outcome	n/a	n/a	0
317.338444509	5.06697556599998	10.86695368799998	n/a	22	ITI_onset	n/a	n/a	n/a
322.405420075	0.27453965799999425	5.799978122000001	0.27453965799999425	23	stim1	n/a	n/a	n/a
322.679959733	0.008642081000027247	5.525438464000006	n/a	23	choice1	0	n/a	n/a
328.20539819699997	0.7866247439999715	2.800013730000006	0.7866247439999715	23	stim2	n/a	1	n/a
328.99202294099996	0.013388986000034492	2.0133889860000345	n/a	23	choice2	n/a	1	n/a
331.005411927	1.5	n/a	n/a	23	outcome	n/a	n/a	1
332.505411927	3.566784528999997	7.550209980999993	n/a	23	ITI_onset	n/a	n/a	n/a
336.072196456	0.44768154900002993	3.9834254519999956	0.44768154900002993	24	stim1	n/a	n/a	n/a
336.519878005	0.01894816199998604	3.535743902999966	n/a	24	choice1	1	n/a	n/a
340.055621908	0.28935749500000385	2.799938181000005	0.28935749500000385	24	stim2	n/a	0	n/a
340.34497940299997	0.01058068600000115	2.5105806860000013	n/a	24	choice2	n/a	0	n/a
342.855560089	1.5	n/a	n/a	24	outcome	n/a	n/a	0
344.355560089	7.566902745000029	11.433699400999991	n/a	24	ITI_onset	n/a	n/a	n/a
351.92246283400004	0.3350842699999921	3.8667966559999623	0.3350842699999921	25	stim1	n/a	n/a	n/a
352.257547104	0.014907982999982777	3.53171238599997	n/a	25	choice1	0	n/a	n/a
355.78925949	0.6042145660000388	5.116633447	0.6042145660000388	25	stim2	n/a	1	n/a
356.393474056	0.012418880999961402	4.512418880999961	n/a	25	choice2	n/a	1	n/a
360.905892937	1.5	n/a	n/a	25	outcome	n/a	n/a	0
362.405892937	1.0	1.0	n/a	25	ITI_onset	n/a	n/a	n/a
