onset	duration	duration2fb	response_time	trial	event	choice1	state	reward
0.0	1.250594100000002	3.7833813000000007	1.250594100000002	1	stim1	n/a	n/a	n/a
1.2505941000000007	0.016493099999999684	2.5327871999999987	n/a	1	choice1	0	n/a	n/a
3.7833812999999985	0.5408522000000012	2.549946899999999	0.5408522000000012	1	stim2	n/a	1	n/a
4.324233500000002	0.009094699999997829	2.0090946999999977	n/a	1	choice2	n/a	1	n/a
6.3333282	1.5	n/a	n/a	1	outcome	n/a	n/a	1
7.8333282	5.566855599999999	9.450229499999997	n/a	1	ITI_onset	n/a	n/a	n/a
13.4001838	0.8504874000000054	3.8833738999999987	0.8504874000000054	2	stim1	n/a	n/a	n/a
14.250671200000006	0.016189299999998182	3.0328864999999934	n/a	2	choice1	0	n/a	n/a
17.283557699999996	1.248103700000007	5.266687900000004	1.248103700000007	2	stim2	n/a	0	n/a
18.531661400000004	0.018584199999997508	4.018584199999998	n/a	2	choice2	n/a	0	n/a
22.550245600000004	1.5	n/a	n/a	2	outcome	n/a	n/a	0
24.050245600000004	6.0668217	9.916868199999998	n/a	2	ITI_onset	n/a	n/a	n/a
30.117067300000002	0.814534599999999	3.850046499999997	0.814534599999999	3	stim1	n/a	n/a	n/a
30.931601900000004	0.018798600000001896	3.0355118999999977	n/a	3	choice1	1	n/a	n/a
33.9671138	0.5804797000000035	6.100000400000004	0.5804797000000035	3	stim2	n/a	0	n/a
34.547593500000005	0.019520700000000942	5.519520700000001	n/a	3	choice2	n/a	0	n/a
40.067114200000006	1.5	n/a	n/a	3	outcome	n/a	n/a	0
41.567114200000006	6.066866699999991	13.416932399999999	n/a	3	ITI_onset	n/a	n/a	n/a
47.6339809	0.31409470000000145	7.350065700000006	0.31409470000000145	4	stim1	n/a	n/a	n/a
47.948075599999996	0.019211500000004888	7.035971000000005	n/a	4	choice1	1	n/a	n/a
54.9840466	1.4600011999999989	5.966683499999999	1.4600011999999989	4	stim2	n/a	0	n/a
56.44404779999999	0.006682300000000396	4.5066823000000005	n/a	4	choice2	n/a	0	n/a
60.9507301	1.5	n/a	n/a	4	outcome	n/a	n/a	0
62.4507301	6.0668387999999975	12.533602199999994	n/a	4	ITI_onset	n/a	n/a	n/a
68.5175689	0.4314373000000051	6.466763399999996	0.4314373000000051	5	stim1	n/a	n/a	n/a
68.9490062	0.018584699999992155	6.035326099999991	n/a	5	choice1	1	n/a	n/a
74.98433229999999	0.6032220000000088	4.1167123	0.6032220000000088	5	stim2	n/a	0	n/a
75.58755430000001	0.013490299999990385	3.51349029999999	n/a	5	choice2	n/a	0	n/a
79.1010446	1.5	n/a	n/a	5	outcome	n/a	n/a	0
80.6010446	4.566743400000006	8.450575522000014	n/a	5	ITI_onset	n/a	n/a	n/a
85.167788	0.3494995999999956	3.883832122000007	0.3494995999999956	6	stim1	n/a	n/a	n/a
85.51728759999999	0.017193700000003444	3.5343325220000117	n/a	6	choice1	0	n/a	n/a
89.051620122	0.5588082779999968	3.066230377999993	0.5588082779999968	6	stim2	n/a	0	n/a
89.6104284	0.007422099999996135	2.5074220999999963	n/a	6	choice2	n/a	0	n/a
92.1178505	1.5	n/a	n/a	6	outcome	n/a	n/a	1
93.6178505	3.0667957000000023	6.6334609000000055	n/a	6	ITI_onset	n/a	n/a	n/a
96.6846462	0.5402888999999995	3.566665200000003	0.5402888999999995	7	stim1	n/a	n/a	n/a
97.2249351	0.009669399999998858	3.0263763000000035	n/a	7	choice1	0	n/a	n/a
100.2513114	0.43519030000000203	7.950007899999997	0.43519030000000203	7	stim2	n/a	1	n/a
100.68650170000001	0.014817599999994855	7.514817599999994	n/a	7	choice2	n/a	1	n/a
108.2013193	1.5	n/a	n/a	7	outcome	n/a	n/a	1
109.7013193	3.0668209000000206	7.483545200000022	n/a	7	ITI_onset	n/a	n/a	n/a
112.7681402	0.8877943999999843	4.416724300000002	0.8877943999999843	8	stim1	n/a	n/a	n/a
113.6559346	0.012225500000000465	3.5289299000000174	n/a	8	choice1	0	n/a	n/a
117.1848645	0.46596259999999895	4.483348299999983	0.46596259999999895	8	stim2	n/a	1	n/a
117.65082710000001	0.017385699999984353	4.017385699999984	n/a	8	choice2	n/a	1	n/a
121.66821279999999	1.5	n/a	n/a	8	outcome	n/a	n/a	1
123.16821279999999	6.066828600000008	11.416873500000015	n/a	8	ITI_onset	n/a	n/a	n/a
129.2350414	0.32183749999999417	5.350044900000008	0.32183749999999417	9	stim1	n/a	n/a	n/a
129.5568789	0.011478600000002188	5.028207400000014	n/a	9	choice1	0	n/a	n/a
134.5850863	0.4421664999999921	4.9500137999999865	0.4421664999999921	9	stim2	n/a	1	n/a
135.0272528	0.007847299999993992	4.507847299999994	n/a	9	choice2	n/a	1	n/a
139.5351001	1.5	n/a	n/a	9	outcome	n/a	n/a	1
141.0351001	4.06679740000001	6.900266000000003	n/a	9	ITI_onset	n/a	n/a	n/a
145.1018975	0.800449099999998	2.8334685999999927	0.800449099999998	10	stim1	n/a	n/a	n/a
145.90234660000002	0.01622969999999623	2.033019499999995	n/a	10	choice1	0	n/a	n/a
147.9353661	0.5014294999999984	5.016569199999998	0.5014294999999984	10	stim2	n/a	0	n/a
148.4367956	0.015139699999999721	4.5151397	n/a	10	choice2	n/a	0	n/a
152.9519353	1.5	n/a	n/a	10	outcome	n/a	n/a	0
154.4519353	6.0668335000000075	9.600234400000016	n/a	10	ITI_onset	n/a	n/a	n/a
160.5187688	0.512308400000009	3.5334009000000077	0.512308400000009	11	stim1	n/a	n/a	n/a
161.03107720000003	0.004303899999998976	3.0210924999999986	n/a	11	choice1	0	n/a	n/a
164.0521697	0.5710037000000011	6.583275999999984	0.5710037000000011	11	stim2	n/a	0	n/a
164.6231734	0.01227229999998235	6.0122722999999825	n/a	11	choice2	n/a	0	n/a
170.6354457	1.5	n/a	n/a	11	outcome	n/a	n/a	1
172.1354457	3.066887400000007	7.050229200000001	n/a	11	ITI_onset	n/a	n/a	n/a
175.2023331	0.4548883999999962	3.9833417999999945	0.4548883999999962	12	stim1	n/a	n/a	n/a
175.6572215	0.011758900000015273	3.5284533999999983	n/a	12	choice1	0	n/a	n/a
179.1856749	0.7079624999999942	2.716666499999992	0.7079624999999942	12	stim2	n/a	1	n/a
179.8936374	0.008703999999997904	2.008703999999998	n/a	12	choice2	n/a	1	n/a
181.90234139999998	1.5	n/a	n/a	12	outcome	n/a	n/a	1
183.40234139999998	8.06683010000002	10.8668713	n/a	12	ITI_onset	n/a	n/a	n/a
191.46917150000002	0.7769496999999974	2.8000411999999777	0.7769496999999974	13	stim1	n/a	n/a	n/a
192.2461212	0.0064010999999882185	2.0230914999999805	n/a	13	choice1	0	n/a	n/a
194.2692127	0.6964637999999977	3.7167027999999993	0.6964637999999977	13	stim2	n/a	1	n/a
194.96567649999997	0.020239000000001398	3.0202390000000015	n/a	13	choice2	n/a	1	n/a
197.98591549999998	1.5	n/a	n/a	13	outcome	n/a	n/a	1
199.48591549999998	4.066752200000018	9.66683070000002	n/a	13	ITI_onset	n/a	n/a	n/a
203.5526677	0.5674070000000065	5.600078500000003	0.5674070000000065	14	stim1	n/a	n/a	n/a
204.1200747	0.015938899999979186	5.032671499999997	n/a	14	choice1	0	n/a	n/a
209.1527462	0.525377999999997	5.533314299999998	0.525377999999997	14	stim2	n/a	1	n/a
209.6781242	0.007936300000001211	5.007936300000001	n/a	14	choice2	n/a	1	n/a
214.6860605	1.5	n/a	n/a	14	outcome	n/a	n/a	1
216.1860605	7.566858899999992	12.316900800000003	n/a	14	ITI_onset	n/a	n/a	n/a
223.7529194	1.224074099999998	4.750041900000011	1.224074099999998	15	stim1	n/a	n/a	n/a
224.9769935	0.009282100000011268	3.525967800000013	n/a	15	choice1	0	n/a	n/a
228.5029613	0.6800197000000043	3.2000429000000006	0.6800197000000043	15	stim2	n/a	1	n/a
229.182981	0.020023199999995994	2.520023199999996	n/a	15	choice2	n/a	1	n/a
231.7030042	1.5	n/a	n/a	15	outcome	n/a	n/a	1
233.2030042	3.6001074999999836	12.250205699999963	n/a	15	ITI_onset	n/a	n/a	n/a
236.8031117	0.6278697000000102	8.650098199999979	0.6278697000000102	16	stim1	n/a	n/a	n/a
237.4309814	0.005460900000005495	8.022228499999969	n/a	16	choice1	0	n/a	n/a
245.4532099	0.5677685000000056	6.0833552000000495	0.5677685000000056	16	stim2	n/a	1	n/a
246.0209784	0.015586700000043493	5.515586700000044	n/a	16	choice2	n/a	1	n/a
251.53656510000002	1.5	n/a	n/a	16	outcome	n/a	n/a	0
253.03656510000002	7.566858099999954	12.53357879999996	n/a	16	ITI_onset	n/a	n/a	n/a
260.60342319999995	0.44357200000004376	4.966720700000005	0.44357200000004376	17	stim1	n/a	n/a	n/a
261.0469952	0.006426500000001397	4.523148699999962	n/a	17	choice1	0	n/a	n/a
265.5701439	0.6637457000000286	4.183344299999997	0.6637457000000286	17	stim2	n/a	1	n/a
266.2338896	0.01959859999996843	3.5195985999999686	n/a	17	choice2	n/a	1	n/a
269.7534882	1.5	n/a	n/a	17	outcome	n/a	n/a	0
271.2534882	7.566835699999996	12.950229099999996	n/a	17	ITI_onset	n/a	n/a	n/a
278.82032389999995	0.3535975000000326	5.383393400000001	0.3535975000000326	18	stim1	n/a	n/a	n/a
279.1739214	0.013065400000021328	5.029795899999968	n/a	18	choice1	1	n/a	n/a
284.2037173	0.39322650000004794	3.400001900000032	0.39322650000004794	18	stim2	n/a	0	n/a
284.5969438	0.006775399999984074	3.006775399999984	n/a	18	choice2	n/a	0	n/a
287.6037192	1.5	n/a	n/a	18	outcome	n/a	n/a	1
289.1037192	4.566793000000005	7.1501612999999775	n/a	18	ITI_onset	n/a	n/a	n/a
293.6705122	0.5563187000000035	2.583368299999973	0.5563187000000035	19	stim1	n/a	n/a	n/a
294.22683090000004	0.010372299999988172	2.027049599999969	n/a	19	choice1	1	n/a	n/a
296.2538805	0.49182790000003296	4.000000400000019	0.49182790000003296	19	stim2	n/a	0	n/a
296.7457084	0.00817249999998603	3.508172499999986	n/a	19	choice2	n/a	0	n/a
300.2538809	1.5	n/a	n/a	19	outcome	n/a	n/a	1
301.7538809	4.0667947999999745	9.916863899999997	n/a	19	ITI_onset	n/a	n/a	n/a
305.8206757	0.827101800000004	5.850069100000022	0.827101800000004	20	stim1	n/a	n/a	n/a
306.64777749999996	0.006250800000037998	5.022967300000018	n/a	20	choice1	1	n/a	n/a
311.6707448	0.4036318999999785	2.916686999999976	0.4036318999999785	20	stim2	n/a	0	n/a
312.07437669999996	0.013055099999997764	2.5130550999999977	n/a	20	choice2	n/a	0	n/a
314.5874318	1.5	n/a	n/a	20	outcome	n/a	n/a	1
316.0874318	2.066749600000039	7.700145700000052	n/a	20	ITI_onset	n/a	n/a	n/a
318.1541814	0.5986498999999603	5.633396100000013	0.5986498999999603	21	stim1	n/a	n/a	n/a
318.75283129999997	0.018023700000019745	5.034746200000052	n/a	21	choice1	1	n/a	n/a
323.78757750000005	0.342188199999975	4.8500360999999685	0.342188199999975	21	stim2	n/a	0	n/a
324.1297657	0.007847899999993387	4.507847899999994	n/a	21	choice2	n/a	0	n/a
328.6376136	1.5	n/a	n/a	21	outcome	n/a	n/a	1
330.1376136	3.066753800000006	7.350137700000021	n/a	21	ITI_onset	n/a	n/a	n/a
333.2043674	0.7613558000000193	4.283383900000016	0.7613558000000193	22	stim1	n/a	n/a	n/a
333.9657232	0.005404399999999442	3.522028099999996	n/a	22	choice1	1	n/a	n/a
337.4877513	0.44608559999999126	2.466682999999961	0.44608559999999126	22	stim2	n/a	0	n/a
337.9338369	0.020597399999969637	2.0205973999999696	n/a	22	choice2	n/a	0	n/a
339.9544343	1.5	n/a	n/a	22	outcome	n/a	n/a	1
341.4544343	2.0667596000000485	5.716787800000049	n/a	22	ITI_onset	n/a	n/a	n/a
343.5211939	1.1235034999999916	3.650028200000001	1.1235034999999916	23	stim1	n/a	n/a	n/a
344.64469740000004	0.009839199999987613	2.526524700000009	n/a	23	choice1	1	n/a	n/a
347.1712221	0.4964416999999667	5.516636799999978	0.4964416999999667	23	stim2	n/a	0	n/a
347.6676638	0.020195100000011734	5.020195100000012	n/a	23	choice2	n/a	0	n/a
352.6878589	1.5	n/a	n/a	23	outcome	n/a	n/a	0
354.1878589	5.566852000000013	7.9835692999999734	n/a	23	ITI_onset	n/a	n/a	n/a
359.7547109	0.3859958999999799	2.41671729999996	0.3859958999999799	24	stim1	n/a	n/a	n/a
360.1407068	0.014005200000014156	2.0307213999999805	n/a	24	choice1	0	n/a	n/a
362.1714282	0.5461612000000314	4.566661000000022	0.5461612000000314	24	stim2	n/a	1	n/a
362.7175894	0.0204997999999905	4.020499799999991	n/a	24	choice2	n/a	1	n/a
366.7380892	1.5	n/a	n/a	24	outcome	n/a	n/a	0
368.2380892	5.066803299999971	7.450189000000013	n/a	24	ITI_onset	n/a	n/a	n/a
373.3048925	0.3598292000000365	2.3833857000000425	0.3598292000000365	25	stim1	n/a	n/a	n/a
373.66472170000003	0.006888700000010431	2.023556500000006	n/a	25	choice1	1	n/a	n/a
375.6882782	0.3613769999999786	2.366656900000002	0.3613769999999786	25	stim2	n/a	0	n/a
376.0496552	0.00527990000002319	2.005279900000023	n/a	25	choice2	n/a	0	n/a
378.0549351	1.5	n/a	n/a	25	outcome	n/a	n/a	1
379.5549351	1.0	1.0	n/a	25	ITI_onset	n/a	n/a	n/a
