onset	duration	duration2fb	response_time	trial	event	choice1	state	reward
0.0	3.1926683999999987	6.2334385	3.1926683999999987	1	stim1	n/a	n/a	n/a
3.1926683999999987	0.024427599999999074	3.0407701000000014	n/a	1	choice1	0	n/a	n/a
6.233438499999998	0.8211333999999988	5.833357299999999	0.8211333999999988	1	stim2	n/a	0	n/a
7.054571899999999	0.012223900000000867	5.012223900000001	n/a	1	choice2	n/a	0	n/a
12.066795799999998	1.5	n/a	n/a	1	outcome	n/a	n/a	1
13.566795799999998	2.566794999999998	8.200176800000001	n/a	1	ITI_onset	n/a	n/a	n/a
16.133590799999993	1.0988669000000009	5.633381800000003	1.0988669000000009	2	stim1	n/a	n/a	n/a
17.232457699999998	0.017831599999997706	4.534514900000002	n/a	2	choice1	0	n/a	n/a
21.766972600000003	0.8865368000000017	6.900012199999997	0.8865368000000017	2	stim2	n/a	0	n/a
22.653509400000004	0.013475399999995715	6.0134753999999955	n/a	2	choice2	n/a	0	n/a
28.666984799999994	1.5	n/a	n/a	2	outcome	n/a	n/a	0
30.166984799999994	2.566912700000001	10.033684699999998	n/a	2	ITI_onset	n/a	n/a	n/a
32.7338975	1.4308994999999995	7.466771999999997	1.4308994999999995	3	stim1	n/a	n/a	n/a
34.164797	0.01911420000000362	6.035872499999997	n/a	3	choice1	0	n/a	n/a
40.2006695	0.9300224000000017	3.4500132000000012	0.9300224000000017	3	stim2	n/a	0	n/a
41.130691899999995	0.01999079999999958	2.5199907999999995	n/a	3	choice2	n/a	0	n/a
43.6506827	1.5	n/a	n/a	3	outcome	n/a	n/a	1
45.1506827	3.066775699999998	6.516836599999995	n/a	3	ITI_onset	n/a	n/a	n/a
48.21745839999999	0.9288095000000031	3.450060899999997	0.9288095000000031	4	stim1	n/a	n/a	n/a
49.14626789999999	0.004473800000007032	2.521251399999994	n/a	4	choice1	0	n/a	n/a
51.66751929999999	0.6916655000000028	2.6999935000000113	0.6916655000000028	4	stim2	n/a	0	n/a
52.35918479999999	0.008328000000008615	2.0083280000000086	n/a	4	choice2	n/a	0	n/a
54.36751280000001	1.5	n/a	n/a	4	outcome	n/a	n/a	1
55.86751280000001	2.5667727999999914	5.533485300000001	n/a	4	ITI_onset	n/a	n/a	n/a
58.43428559999999	0.940886400000003	2.9667125000000087	0.940886400000003	5	stim1	n/a	n/a	n/a
59.375172	0.009163400000004913	2.0258261000000055	n/a	5	choice1	0	n/a	n/a
61.4009981	0.653229800000001	3.6666343999999955	0.653229800000001	5	stim2	n/a	0	n/a
62.05422790000001	0.013404599999994389	3.0134045999999945	n/a	5	choice2	n/a	0	n/a
65.0676325	1.5	n/a	n/a	5	outcome	n/a	n/a	0
66.5676325	5.566911500000002	13.033653000000006	n/a	5	ITI_onset	n/a	n/a	n/a
72.134544	1.941707899999994	7.466741500000004	1.941707899999994	6	stim1	n/a	n/a	n/a
74.07625189999999	0.008309399999998277	5.525033600000009	n/a	6	choice1	0	n/a	n/a
79.60128550000002	1.1214217999999965	3.133389599999995	1.1214217999999965	6	stim2	n/a	1	n/a
80.7227073	0.011967799999998533	2.0119677999999985	n/a	6	choice2	n/a	1	n/a
82.7346751	1.5	n/a	n/a	6	outcome	n/a	n/a	0
84.2346751	2.5667467000000035	11.316890100000004	n/a	6	ITI_onset	n/a	n/a	n/a
86.80142180000001	6.2294323999999905	8.7501434	6.2294323999999905	7	stim1	n/a	n/a	n/a
93.0308542	0.0039900000000052385	2.52071100000001	n/a	7	choice1	0	n/a	n/a
95.5515652	0.6541281999999919	3.1666930999999896	0.6541281999999919	7	stim2	n/a	0	n/a
96.2056934	0.012564899999997579	2.5125648999999974	n/a	7	choice2	n/a	0	n/a
98.7182583	1.5	n/a	n/a	7	outcome	n/a	n/a	0
100.2182583	2.5667226000000083	11.050231899999998	n/a	7	ITI_onset	n/a	n/a	n/a
102.7849809	0.44730989999999293	8.48350929999999	0.44730989999999293	8	stim1	n/a	n/a	n/a
103.23229079999999	0.0194204000000027	8.036199399999997	n/a	8	choice1	1	n/a	n/a
111.2684902	0.9601684999999998	4.466637900000001	0.9601684999999998	8	stim2	n/a	0	n/a
112.22865870000001	0.00646940000000177	3.5064694000000016	n/a	8	choice2	n/a	0	n/a
115.7351281	1.5	n/a	n/a	8	outcome	n/a	n/a	1
117.2351281	2.0668362999999954	9.816940800000012	n/a	8	ITI_onset	n/a	n/a	n/a
119.3019644	1.214591700000019	7.750104500000016	1.214591700000019	9	stim1	n/a	n/a	n/a
120.5165561	0.018736000000004423	6.535512799999997	n/a	9	choice1	1	n/a	n/a
127.05206890000002	0.6524823000000033	2.666681899999996	0.6524823000000033	9	stim2	n/a	1	n/a
127.70455120000003	0.014199599999992643	2.0141995999999924	n/a	9	choice2	n/a	1	n/a
129.7187508	1.5	n/a	n/a	9	outcome	n/a	n/a	1
131.2187508	4.5669065000000115	8.066819699999993	n/a	9	ITI_onset	n/a	n/a	n/a
135.78565730000003	0.9745888999999733	3.499913199999981	0.9745888999999733	10	stim1	n/a	n/a	n/a
136.76024619999998	0.008657700000010664	2.5253243000000074	n/a	10	choice1	0	n/a	n/a
139.2855705	0.45017370000001394	6.966714200000017	0.45017370000001394	10	stim2	n/a	0	n/a
139.73574420000003	0.016540500000002793	6.516540500000003	n/a	10	choice2	n/a	0	n/a
146.25228470000002	1.5	n/a	n/a	10	outcome	n/a	n/a	0
147.75228470000002	3.0668459999999906	7.7169708999999855	n/a	10	ITI_onset	n/a	n/a	n/a
150.81913070000002	1.1275926000000036	4.650124899999995	1.1275926000000036	11	stim1	n/a	n/a	n/a
151.9467233	0.005778300000005402	3.5225322999999915	n/a	11	choice1	0	n/a	n/a
155.4692556	1.0005089000000154	3.016633900000015	1.0005089000000154	11	stim2	n/a	0	n/a
156.46976450000003	0.016125	2.016125	n/a	11	choice2	n/a	0	n/a
158.4858895	1.5	n/a	n/a	11	outcome	n/a	n/a	1
159.9858895	2.0667848999999987	5.616872399999993	n/a	11	ITI_onset	n/a	n/a	n/a
162.05267440000003	1.0289627999999793	3.5500874999999943	1.0289627999999793	12	stim1	n/a	n/a	n/a
163.0816372	0.004376500000013038	2.5211247000000148	n/a	12	choice1	0	n/a	n/a
165.60276190000002	1.3108999999999942	5.316634300000005	1.3108999999999942	12	stim2	n/a	0	n/a
166.9136619	0.00573430000001099	4.005734300000011	n/a	12	choice2	n/a	0	n/a
170.91939620000002	1.5	n/a	n/a	12	outcome	n/a	n/a	0
172.41939620000002	5.066827099999995	10.800281199999997	n/a	12	ITI_onset	n/a	n/a	n/a
177.4862233	0.7010997999999963	5.733454100000003	0.7010997999999963	13	stim1	n/a	n/a	n/a
178.18732310000001	0.015578600000008009	5.032354300000006	n/a	13	choice1	0	n/a	n/a
183.21967740000002	0.42705259999999545	5.433348299999984	0.42705259999999545	13	stim2	n/a	0	n/a
183.64673000000002	0.006295699999987846	5.0062956999999875	n/a	13	choice2	n/a	0	n/a
188.6530257	1.5	n/a	n/a	13	outcome	n/a	n/a	1
190.1530257	5.066856300000014	7.783545400000003	n/a	13	ITI_onset	n/a	n/a	n/a
195.219882	0.685440499999997	2.716689099999989	0.685440499999997	14	stim1	n/a	n/a	n/a
195.9053225	0.01457149999999092	2.0312485999999916	n/a	14	choice1	0	n/a	n/a
197.9365711	0.46114509999999426	2.966657600000006	0.46114509999999426	14	stim2	n/a	0	n/a
198.3977162	0.005512500000011642	2.5055125000000116	n/a	14	choice2	n/a	0	n/a
200.9032287	1.5	n/a	n/a	14	outcome	n/a	n/a	0
202.4032287	5.566833299999998	9.733576600000001	n/a	14	ITI_onset	n/a	n/a	n/a
207.970062	0.6297002999999968	4.166743300000002	0.6297002999999968	15	stim1	n/a	n/a	n/a
208.5997623	0.02029990000001271	3.537043000000005	n/a	15	choice1	0	n/a	n/a
212.1368053	0.3927589999999909	2.899953899999993	0.3927589999999909	15	stim2	n/a	0	n/a
212.5295643	0.007194900000002235	2.5071949000000022	n/a	15	choice2	n/a	0	n/a
215.0367592	1.5	n/a	n/a	15	outcome	n/a	n/a	0
216.5367592	3.066852700000018	5.983533599999995	n/a	15	ITI_onset	n/a	n/a	n/a
219.6036119	0.8919492999999784	2.9166808999999776	0.8919492999999784	16	stim1	n/a	n/a	n/a
220.4955612	0.008027100000006612	2.024731599999999	n/a	16	choice1	0	n/a	n/a
222.5202928	0.8825402000000176	3.9000149000000093	0.8825402000000176	16	stim2	n/a	0	n/a
223.40283300000002	0.017474699999991572	3.0174746999999917	n/a	16	choice2	n/a	0	n/a
226.4203077	1.5	n/a	n/a	16	outcome	n/a	n/a	0
227.9203077	8.066887500000012	14.766981200000009	n/a	16	ITI_onset	n/a	n/a	n/a
235.9871952	0.6785435999999754	6.700093699999997	0.6785435999999754	17	stim1	n/a	n/a	n/a
236.66573879999999	0.004780200000008335	6.021550100000022	n/a	17	choice1	0	n/a	n/a
242.68728890000003	0.39902599999998345	2.41668459999995	0.39902599999998345	17	stim2	n/a	0	n/a
243.08631490000002	0.017658599999995205	2.017658599999966	n/a	17	choice2	n/a	0	n/a
245.10397349999997	1.5	n/a	n/a	17	outcome	n/a	n/a	0
246.60397349999997	4.0667677000000255	12.400265500000037	n/a	17	ITI_onset	n/a	n/a	n/a
250.67074119999998	1.3018673000000418	8.333497800000012	1.3018673000000418	18	stim1	n/a	n/a	n/a
251.9726085	0.014825199999962933	7.03163049999997	n/a	18	choice1	0	n/a	n/a
259.004239	4.099565200000012	6.616727499999979	4.099565200000012	18	stim2	n/a	1	n/a
263.10380419999996	0.01716229999996722	2.5171622999999674	n/a	18	choice2	n/a	1	n/a
265.62096649999995	1.5	n/a	n/a	18	outcome	n/a	n/a	1
267.12096649999995	8.066855500000004	10.733635800000048	n/a	18	ITI_onset	n/a	n/a	n/a
275.187822	0.6425291000000434	2.6667803000000423	0.6425291000000434	19	stim1	n/a	n/a	n/a
275.8303511	0.007482399999978952	2.024251199999999	n/a	19	choice1	0	n/a	n/a
277.8546023	0.48007600000000095	4.499995799999975	0.48007600000000095	19	stim2	n/a	0	n/a
278.3346783	0.019919799999974203	4.0199197999999745	n/a	19	choice2	n/a	0	n/a
282.3545981	1.5	n/a	n/a	19	outcome	n/a	n/a	0
283.8545981	2.566744999999995	7.850178699999989	n/a	19	ITI_onset	n/a	n/a	n/a
286.42134309999994	0.7519920000000275	5.2834336999999945	0.7519920000000275	20	stim1	n/a	n/a	n/a
287.1733351	0.014680899999977555	4.5314416999999665	n/a	20	choice1	0	n/a	n/a
291.7047768	0.4969786000000313	3.516609200000006	0.4969786000000313	20	stim2	n/a	0	n/a
292.20175539999997	0.01963059999997495	3.019630599999975	n/a	20	choice2	n/a	0	n/a
295.221386	1.5	n/a	n/a	20	outcome	n/a	n/a	0
296.721386	5.066880500000028	8.41694770000002	n/a	20	ITI_onset	n/a	n/a	n/a
301.7882665	0.31742029999999793	3.3500671999999905	0.31742029999999793	21	stim1	n/a	n/a	n/a
302.1056868	0.01589199999999255	3.0326468999999925	n/a	21	choice1	1	n/a	n/a
305.1383337	0.5470601000000024	2.5666684999999707	0.5470601000000024	21	stim2	n/a	1	n/a
305.6853938	0.019608399999968242	2.019608399999968	n/a	21	choice2	n/a	1	n/a
307.70500219999997	1.5	n/a	n/a	21	outcome	n/a	n/a	1
309.20500219999997	8.066830200000025	10.916882800000021	n/a	21	ITI_onset	n/a	n/a	n/a
317.2718324	0.3153999999999651	2.8500525999999953	0.3153999999999651	22	stim1	n/a	n/a	n/a
317.58723239999995	0.017930400000012014	2.5346526000000305	n/a	22	choice1	1	n/a	n/a
320.12188499999996	0.7088766000000178	5.716642899999977	0.7088766000000178	22	stim2	n/a	0	n/a
320.8307616	0.007766299999959301	5.007766299999959	n/a	22	choice2	n/a	0	n/a
325.8385279	1.5	n/a	n/a	22	outcome	n/a	n/a	0
327.3385279	5.0668980999999915	8.066940100000007	n/a	22	ITI_onset	n/a	n/a	n/a
332.4054259999999	0.4762787000000244	3.0000420000000156	0.4762787000000244	23	stim1	n/a	n/a	n/a
332.8817047	0.0070569000000250525	2.5237632999999913	n/a	23	choice1	1	n/a	n/a
335.405468	0.7343157000000355	7.750009499999986	0.7343157000000355	23	stim2	n/a	0	n/a
336.1397837	0.01569379999994999	7.01569379999995	n/a	23	choice2	n/a	0	n/a
343.15547749999996	1.5	n/a	n/a	23	outcome	n/a	n/a	0
344.65547749999996	3.5668656000000194	6.483645200000028	n/a	23	ITI_onset	n/a	n/a	n/a
348.2223431	0.38029590000002644	2.916779600000009	0.38029590000002644	24	stim1	n/a	n/a	n/a
348.602639	0.019730500000005122	2.5364836999999825	n/a	24	choice1	1	n/a	n/a
351.1391227	0.98442849999998	5.499945899999991	0.98442849999998	24	stim2	n/a	1	n/a
352.12355119999995	0.015517400000011549	4.515517400000012	n/a	24	choice2	n/a	1	n/a
356.6390686	1.5	n/a	n/a	24	outcome	n/a	n/a	1
358.1390686	6.600220499999995	14.817018700000014	n/a	24	ITI_onset	n/a	n/a	n/a
364.73928909999995	1.1859811000000335	8.216798200000019	1.1859811000000335	25	stim1	n/a	n/a	n/a
365.9252702	0.014025899999949616	7.030817099999986	n/a	25	choice1	1	n/a	n/a
372.9560873	0.6047061000000103	7.116683099999966	0.6047061000000103	25	stim2	n/a	1	n/a
373.56079339999997	0.011976999999955296	6.5119769999999555	n/a	25	choice2	n/a	1	n/a
380.07277039999997	1.5	n/a	n/a	25	outcome	n/a	n/a	1
381.57277039999997	1.0	1.0	n/a	25	ITI_onset	n/a	n/a	n/a
