onset	duration	duration2fb	response_time	trial	event	choice1	state	reward
0.0	0.6840669000000016	8.7167696	0.6840669000000016	1	stim1	n/a	n/a	n/a
0.6840669000000013	0.016322799999998097	8.032702699999998	n/a	1	choice1	0	n/a	n/a
8.7167696	0.5099415999999983	2.5167111000000006	0.5099415999999983	1	stim2	n/a	1	n/a
9.226711199999997	0.006769500000002154	2.006769500000002	n/a	1	choice2	n/a	1	n/a
11.233480700000001	1.5	n/a	n/a	1	outcome	n/a	n/a	0
12.733480700000001	7.066805899999999	11.7835233	n/a	1	ITI_onset	n/a	n/a	n/a
19.8002866	0.6843893000000025	4.716717400000001	0.6843893000000025	2	stim1	n/a	n/a	n/a
20.4846759	0.0156108000000022	4.032328099999999	n/a	2	choice1	0	n/a	n/a
24.517004	0.7070821999999971	3.2166782999999994	0.7070821999999971	2	stim2	n/a	0	n/a
25.224086199999995	0.00959610000000248	2.5095961000000027	n/a	2	choice2	n/a	0	n/a
27.733682299999998	1.5	n/a	n/a	2	outcome	n/a	n/a	0
29.233682299999998	2.5667770999999995	5.5334901000000025	n/a	2	ITI_onset	n/a	n/a	n/a
31.8004594	0.434747199999998	2.9667130000000035	0.434747199999998	3	stim1	n/a	n/a	n/a
32.2352066	0.015247500000004948	2.5319658000000054	n/a	3	choice1	1	n/a	n/a
34.7671724	0.34895249999999944	3.8666670000000014	0.34895249999999944	3	stim2	n/a	0	n/a
35.1161249	0.017714500000001864	3.517714500000002	n/a	3	choice2	n/a	0	n/a
38.63383940000001	1.5	n/a	n/a	3	outcome	n/a	n/a	1
40.13383940000001	4.066799299999999	10.716868099999992	n/a	3	ITI_onset	n/a	n/a	n/a
44.200638700000006	0.6234275999999954	6.6500687999999935	0.6234275999999954	4	stim1	n/a	n/a	n/a
44.82406629999999	0.009893700000000536	6.0266411999999985	n/a	4	choice1	1	n/a	n/a
50.85070749999999	0.3965308999999979	3.416694499999998	0.3965308999999979	4	stim2	n/a	0	n/a
51.24723839999999	0.02016359999999986	3.0201636	n/a	4	choice2	n/a	0	n/a
54.267402	1.5	n/a	n/a	4	outcome	n/a	n/a	0
55.767402	4.066782400000011	7.233485400000005	n/a	4	ITI_onset	n/a	n/a	n/a
59.834184400000005	0.6398680000000022	3.1667029999999943	0.6398680000000022	5	stim1	n/a	n/a	n/a
60.47405240000001	0.010143499999991036	2.5268349999999917	n/a	5	choice1	1	n/a	n/a
63.0008874	0.43579700000000593	2.4500118000000075	0.43579700000000593	5	stim2	n/a	0	n/a
63.43668440000001	0.01421480000000156	2.0142148000000017	n/a	5	choice2	n/a	0	n/a
65.45089920000001	1.5	n/a	n/a	5	outcome	n/a	n/a	0
66.95089920000001	6.5668076	12.2835717	n/a	5	ITI_onset	n/a	n/a	n/a
73.51770680000001	0.6802681000000012	5.716764100000001	0.6802681000000012	6	stim1	n/a	n/a	n/a
74.19797490000002	0.019743799999996554	5.036495999999999	n/a	6	choice1	0	n/a	n/a
79.23447090000002	0.32553759999999604	4.833296899999986	0.32553759999999604	6	stim2	n/a	0	n/a
79.56000850000001	0.007759299999990617	4.50775929999999	n/a	6	choice2	n/a	0	n/a
84.06776779999998	1.5	n/a	n/a	6	outcome	n/a	n/a	1
85.56776779999998	2.066838100000008	5.833528200000001	n/a	6	ITI_onset	n/a	n/a	n/a
87.6346059	1.2354051999999938	3.7666900999999924	1.2354051999999938	7	stim1	n/a	n/a	n/a
88.8700111	0.014589300000006916	2.531284899999999	n/a	7	choice1	0	n/a	n/a
91.401296	0.8323205000000017	6.850035300000004	0.8323205000000017	7	stim2	n/a	1	n/a
92.23361649999998	0.01771480000000156	6.017714800000001	n/a	7	choice2	n/a	1	n/a
98.2513313	1.5	n/a	n/a	7	outcome	n/a	n/a	1
99.7513313	5.0668301999999965	9.983584100000007	n/a	7	ITI_onset	n/a	n/a	n/a
104.8181615	1.3878840999999957	4.9167539000000104	1.3878840999999957	8	stim1	n/a	n/a	n/a
106.20604560000001	0.012133900000015274	3.528869800000015	n/a	8	choice1	0	n/a	n/a
109.7349154	0.548132500000007	5.5666690999999995	0.548132500000007	8	stim2	n/a	0	n/a
110.28304790000001	0.018536599999992177	5.018536599999992	n/a	8	choice2	n/a	0	n/a
115.30158450000002	1.5	n/a	n/a	8	outcome	n/a	n/a	0
116.80158450000002	3.066813999999984	7.533502399999998	n/a	8	ITI_onset	n/a	n/a	n/a
119.86839849999998	0.43217380000001865	4.466688400000014	0.43217380000001865	9	stim1	n/a	n/a	n/a
120.30057230000003	0.01779110000000219	4.034514599999995	n/a	9	choice1	1	n/a	n/a
124.33508690000002	0.3137968999999866	5.333352000000014	0.3137968999999866	9	stim2	n/a	0	n/a
124.6488838	0.01955510000002687	5.0195551000000265	n/a	9	choice2	n/a	0	n/a
129.6684389	1.5	n/a	n/a	9	outcome	n/a	n/a	0
131.1684389	3.0668327999999745	6.7335206999999935	n/a	9	ITI_onset	n/a	n/a	n/a
134.2352717	1.6437335000000022	3.666687900000019	1.6437335000000022	10	stim1	n/a	n/a	n/a
135.8790052	0.006267800000001444	2.022954400000017	n/a	10	choice1	1	n/a	n/a
137.90195960000003	0.37996789999998876	7.400006099999999	0.37996789999998876	10	stim2	n/a	0	n/a
138.2819275	0.020038200000009967	7.02003820000001	n/a	10	choice2	n/a	0	n/a
145.3019657	1.5	n/a	n/a	10	outcome	n/a	n/a	0
146.8019657	6.566953500000003	12.183664699999994	n/a	10	ITI_onset	n/a	n/a	n/a
153.36891920000002	0.5889228000000003	5.61671119999999	0.5889228000000003	11	stim1	n/a	n/a	n/a
153.95784200000003	0.011049100000003819	5.027788399999991	n/a	11	choice1	1	n/a	n/a
158.98563040000002	0.4153217000000004	2.9333219999999858	0.4153217000000004	11	stim2	n/a	0	n/a
159.4009521	0.018000299999985144	2.518000299999985	n/a	11	choice2	n/a	0	n/a
161.9189524	1.5	n/a	n/a	11	outcome	n/a	n/a	1
163.4189524	5.566836900000024	8.83353290000002	n/a	11	ITI_onset	n/a	n/a	n/a
168.98578930000002	0.7436950999999826	3.2666959999999965	0.7436950999999826	12	stim1	n/a	n/a	n/a
169.7294844	0.006273000000015599	2.5230009000000138	n/a	12	choice1	1	n/a	n/a
172.25248530000002	0.8679860000000045	4.383330499999982	0.8679860000000045	12	stim2	n/a	1	n/a
173.12047130000002	0.015344499999977416	3.5153444999999772	n/a	12	choice2	n/a	1	n/a
176.6358158	1.5	n/a	n/a	12	outcome	n/a	n/a	1
178.1358158	4.56682190000001	10.633551600000006	n/a	12	ITI_onset	n/a	n/a	n/a
182.7026377	0.5388828999999968	6.066729699999996	0.5388828999999968	13	stim1	n/a	n/a	n/a
183.2415206	0.01105689999999595	5.527846799999999	n/a	13	choice1	1	n/a	n/a
188.7693674	0.2901042000000016	2.30000900000002	0.2901042000000016	13	stim2	n/a	0	n/a
189.0594716	0.00990480000001844	2.0099048000000184	n/a	13	choice2	n/a	0	n/a
191.0693764	1.5	n/a	n/a	13	outcome	n/a	n/a	1
192.5693764	4.566792399999977	10.000180399999984	n/a	13	ITI_onset	n/a	n/a	n/a
197.1361688	0.39718069999999717	5.433388000000006	0.39718069999999717	14	stim1	n/a	n/a	n/a
197.53334949999999	0.019424900000012714	5.036207300000009	n/a	14	choice1	0	n/a	n/a
202.56955680000002	0.4811892999999982	2.5000203000000036	0.4811892999999982	14	stim2	n/a	1	n/a
203.0507461	0.018831000000005586	2.0188310000000054	n/a	14	choice2	n/a	1	n/a
205.0695771	1.5	n/a	n/a	14	outcome	n/a	n/a	0
206.5695771	3.5667651999999945	11.58354250000001	n/a	14	ITI_onset	n/a	n/a	n/a
210.1363423	0.49446460000000664	8.016777300000015	0.49446460000000664	15	stim1	n/a	n/a	n/a
210.6308069	0.005544900000008056	7.522312700000009	n/a	15	choice1	1	n/a	n/a
218.15311960000003	0.9215978999999934	3.4333444999999774	0.9215978999999934	15	stim2	n/a	0	n/a
219.07471750000002	0.011746599999984028	2.511746599999984	n/a	15	choice2	n/a	0	n/a
221.5864641	1.5	n/a	n/a	15	outcome	n/a	n/a	1
223.0864641	2.066767000000022	4.600144300000014	n/a	15	ITI_onset	n/a	n/a	n/a
225.15323110000003	0.49809010000000126	2.5333772999999926	0.49809010000000126	16	stim1	n/a	n/a	n/a
225.6513212	0.018606999999989056	2.0352871999999915	n/a	16	choice1	1	n/a	n/a
227.6866084	0.49436149999999907	2.500032500000001	0.49436149999999907	16	stim2	n/a	0	n/a
228.1809699	0.005671000000002095	2.005671000000002	n/a	16	choice2	n/a	0	n/a
230.1866409	1.5	n/a	n/a	16	outcome	n/a	n/a	0
231.6866409	5.566767499999987	9.166797099999997	n/a	16	ITI_onset	n/a	n/a	n/a
237.2534084	0.5713449000000255	3.600029600000009	0.5713449000000255	17	stim1	n/a	n/a	n/a
237.8247533	0.011983499999972991	3.0286846999999835	n/a	17	choice1	0	n/a	n/a
240.85343799999998	0.43239549999998417	4.950018199999992	0.43239549999998417	17	stim2	n/a	1	n/a
241.28583349999997	0.017622700000007173	4.5176227000000075	n/a	17	choice2	n/a	1	n/a
245.80345620000003	1.5	n/a	n/a	17	outcome	n/a	n/a	0
247.30345620000003	3.0667901999999887	6.533500600000028	n/a	17	ITI_onset	n/a	n/a	n/a
250.37024639999998	0.434149700000009	3.46671040000004	0.434149700000009	18	stim1	n/a	n/a	n/a
250.80439610000002	0.015852899999998043	3.032560700000031	n/a	18	choice1	0	n/a	n/a
253.83695680000005	0.6216771999999764	2.6333440999999875	0.6216771999999764	18	stim2	n/a	1	n/a
254.45863400000002	0.011666900000011082	2.011666900000011	n/a	18	choice2	n/a	1	n/a
256.47030090000004	1.5	n/a	n/a	18	outcome	n/a	n/a	0
257.97030090000004	6.566842899999989	11.833528500000014	n/a	18	ITI_onset	n/a	n/a	n/a
264.5371438	0.74019650000002	5.266685600000026	0.74019650000002	19	stim1	n/a	n/a	n/a
265.27734030000005	0.009790799999958836	4.526489100000006	n/a	19	choice1	1	n/a	n/a
269.80382940000004	0.43585279999999327	3.950030999999959	0.43585279999999327	19	stim2	n/a	0	n/a
270.2396822	0.014178199999965727	3.5141781999999657	n/a	19	choice2	n/a	0	n/a
273.7538604	1.5	n/a	n/a	19	outcome	n/a	n/a	0
275.2538604	3.566788300000015	11.183562600000005	n/a	19	ITI_onset	n/a	n/a	n/a
278.8206487	0.5952084000000032	7.61677429999999	0.5952084000000032	20	stim1	n/a	n/a	n/a
279.4158571	0.004824499999987893	7.021565899999987	n/a	20	choice1	1	n/a	n/a
286.43742299999997	0.4128280000000377	2.4333709999999846	0.4128280000000377	20	stim2	n/a	0	n/a
286.850251	0.020542999999946916	2.020542999999947	n/a	20	choice2	n/a	0	n/a
288.870794	1.5	n/a	n/a	20	outcome	n/a	n/a	1
290.370794	3.566772100000002	7.3835	n/a	20	ITI_onset	n/a	n/a	n/a
293.93756609999997	0.7831761000000406	3.816727899999998	0.7831761000000406	21	stim1	n/a	n/a	n/a
294.7207422	0.01683259999996517	3.0335517999999575	n/a	21	choice1	1	n/a	n/a
297.75429399999996	0.7119365000000107	4.216625100000004	0.7119365000000107	21	stim2	n/a	0	n/a
298.4662305	0.00468859999999404	3.504688599999994	n/a	21	choice2	n/a	0	n/a
301.9709191	1.5	n/a	n/a	21	outcome	n/a	n/a	1
303.4709191	6.5668190000000175	12.400263399999996	n/a	21	ITI_onset	n/a	n/a	n/a
310.0377381	1.8059543999999879	5.833444399999978	1.8059543999999879	22	stim1	n/a	n/a	n/a
311.8436925	0.01076480000000447	4.0274899999999905	n/a	22	choice1	0	n/a	n/a
315.8711825	0.44055000000004657	2.4500039000000107	0.44055000000004657	22	stim2	n/a	1	n/a
316.3117325	0.00945389999996405	2.009453899999964	n/a	22	choice2	n/a	1	n/a
318.3211864	1.5	n/a	n/a	22	outcome	n/a	n/a	0
319.8211864	4.5668006000000165	10.650203100000043	n/a	22	ITI_onset	n/a	n/a	n/a
324.387987	0.5462241999999969	6.083402500000026	0.5462241999999969	23	stim1	n/a	n/a	n/a
324.9342112	0.02046470000001136	5.537178300000028	n/a	23	choice1	0	n/a	n/a
330.47138950000004	0.8892262999999803	2.900014999999956	0.8892262999999803	23	stim2	n/a	1	n/a
331.3606158	0.010788699999975506	2.0107886999999756	n/a	23	choice2	n/a	1	n/a
333.3714045	1.5	n/a	n/a	23	outcome	n/a	n/a	0
334.8714045	4.066773099999991	10.000207099999999	n/a	23	ITI_onset	n/a	n/a	n/a
338.93817759999996	0.40702730000001613	5.933434000000008	0.40702730000001613	24	stim1	n/a	n/a	n/a
339.3452049	0.009642200000002049	5.526406699999992	n/a	24	choice1	1	n/a	n/a
344.8716116	0.6719704999999958	3.683328500000003	0.6719704999999958	24	stim2	n/a	1	n/a
345.5435821	0.01135800000000745	3.0113580000000075	n/a	24	choice2	n/a	1	n/a
348.5549401	1.5	n/a	n/a	24	outcome	n/a	n/a	1
350.0549401	3.600120600000024	6.5168265000000245	n/a	24	ITI_onset	n/a	n/a	n/a
353.65506070000004	0.38807360000000335	2.9167059000000006	0.38807360000000335	25	stim1	n/a	n/a	n/a
354.0431343	0.011928599999984727	2.5286322999999973	n/a	25	choice1	0	n/a	n/a
356.5717666	0.5287455999999656	3.5500165999999735	0.5287455999999656	25	stim2	n/a	1	n/a
357.10051219999997	0.021271000000007916	3.021271000000008	n/a	25	choice2	n/a	1	n/a
360.1217832	1.5	n/a	n/a	25	outcome	n/a	n/a	0
361.6217832	1.0	1.0	n/a	25	ITI_onset	n/a	n/a	n/a
