onset	duration	duration2fb	response_time	trial	event	choice1	state	reward
0.0	0.45821668200000204	5.0000939959999995	0.45821668200000204	1	stim1	n/a	n/a	n/a
0.4582166820000033	0.025565340999997715	4.541877313999998	n/a	1	choice1	1	n/a	n/a
5.000093996	0.5746177080000016	3.0834060749999987	0.5746177080000016	1	stim2	n/a	1	n/a
5.574711704000002	0.008788366999997379	2.5087883669999975	n/a	1	choice2	n/a	1	n/a
8.083500071	1.5	n/a	n/a	1	outcome	n/a	n/a	0
9.583500071	4.083411368000001	6.583544982000003	n/a	1	ITI_onset	n/a	n/a	n/a
13.666911439000003	0.4716775269999962	2.5001336140000023	0.4716775269999962	2	stim1	n/a	n/a	n/a
14.138588965999993	0.01163580400000501	2.028456087000006	n/a	2	choice1	1	n/a	n/a
16.167045053000002	1.336431958000001	8.349899862	1.336431958000001	2	stim2	n/a	1	n/a
17.503477011	0.01346790399999736	7.013467903999997	n/a	2	choice2	n/a	1	n/a
24.516944915000003	1.5	n/a	n/a	2	outcome	n/a	n/a	0
26.016944915000003	8.06694092	14.083715007000006	n/a	2	ITI_onset	n/a	n/a	n/a
34.083885835000004	0.482641893	6.016774087000005	0.482641893	3	stim1	n/a	n/a	n/a
34.566527728000004	0.01736307900000247	5.534132194000005	n/a	3	choice1	0	n/a	n/a
40.100659922000006	0.4955769439999931	3.5166914809999943	0.4955769439999931	3	stim2	n/a	1	n/a
40.596236866	0.021114537000001293	3.021114537000001	n/a	3	choice2	n/a	1	n/a
43.617351403	1.5	n/a	n/a	3	outcome	n/a	n/a	0
45.117351403	3.5667854909999877	7.416887619000001	n/a	3	ITI_onset	n/a	n/a	n/a
48.68413689399999	0.318658253000016	3.8501021280000134	0.318658253000016	4	stim1	n/a	n/a	n/a
49.002795147	0.01469593299999542	3.5314438749999972	n/a	4	choice1	0	n/a	n/a
52.53423902200001	0.5095109719999891	3.016648493000001	0.5095109719999891	4	stim2	n/a	1	n/a
53.043749993999995	0.007137521000011475	2.5071375210000113	n/a	4	choice2	n/a	1	n/a
55.550887515	1.5	n/a	n/a	4	outcome	n/a	n/a	0
57.050887515	5.583458045000007	11.066928568999996	n/a	4	ITI_onset	n/a	n/a	n/a
62.634345560000014	0.4568863159999892	5.48347052399999	0.4568863159999892	5	stim1	n/a	n/a	n/a
63.091231875999995	0.009787344000011217	5.026584208	n/a	5	choice1	0	n/a	n/a
68.117816084	0.1458660349999991	6.149955296	0.1458660349999991	5	stim2	n/a	1	n/a
68.263682119	0.004089261000000988	6.004089261000001	n/a	5	choice2	n/a	1	n/a
74.26777138	1.5	n/a	n/a	5	outcome	n/a	n/a	0
75.76777138	4.0668472469999974	8.817048469000001	n/a	5	ITI_onset	n/a	n/a	n/a
79.834618627	1.2200848260000057	4.750201222000003	1.2200848260000057	6	stim1	n/a	n/a	n/a
81.054703453	0.013269968000007794	3.5301163959999977	n/a	6	choice1	1	n/a	n/a
84.584819849	1.2987217010000023	4.316607046000005	1.2987217010000023	6	stim2	n/a	0	n/a
85.88354155	0.017885345000002415	3.0178853450000025	n/a	6	choice2	n/a	0	n/a
88.901426895	1.5	n/a	n/a	6	outcome	n/a	n/a	1
90.401426895	2.0668042579999892	6.283623001	n/a	6	ITI_onset	n/a	n/a	n/a
92.46823115299999	0.6865717799999984	4.216818743000011	0.6865717799999984	7	stim1	n/a	n/a	n/a
93.154802933	0.013404706000015722	3.530246963000012	n/a	7	choice1	1	n/a	n/a
96.68504989600001	0.3027006069999916	3.31655154700001	0.3027006069999916	7	stim2	n/a	0	n/a
96.987750503	0.013850940000018455	3.0138509400000184	n/a	7	choice2	n/a	0	n/a
100.00160144300001	1.5	n/a	n/a	7	outcome	n/a	n/a	1
101.50160144300001	2.567232351999992	8.36694967799999	n/a	7	ITI_onset	n/a	n/a	n/a
104.068833795	1.270335886999994	5.799717325999998	1.270335886999994	8	stim1	n/a	n/a	n/a
105.339169682	0.012587301999999908	4.529381439000004	n/a	8	choice1	0	n/a	n/a
109.86855112100001	0.7686579159999819	3.783236114999978	0.7686579159999819	8	stim2	n/a	1	n/a
110.63720903699998	0.0145781990000105	3.014578198999996	n/a	8	choice2	n/a	1	n/a
113.65178723599998	1.5	n/a	n/a	8	outcome	n/a	n/a	0
115.15178723599998	3.566808589000022	7.083618766000028	n/a	8	ITI_onset	n/a	n/a	n/a
118.71859582500001	0.48199836500000676	3.5168101770000066	0.48199836500000676	9	stim1	n/a	n/a	n/a
119.20059419000002	0.018003719999978785	3.034811812	n/a	9	choice1	1	n/a	n/a
122.235406002	0.932933806999994	3.949925397999992	0.932933806999994	9	stim2	n/a	0	n/a
123.16833980900002	0.01699159099999815	3.0169915909999983	n/a	9	choice2	n/a	0	n/a
126.18533140000001	1.5	n/a	n/a	9	outcome	n/a	n/a	1
127.68533140000001	4.566792549000005	7.966876728000003	n/a	9	ITI_onset	n/a	n/a	n/a
132.252123949	0.378330283999996	3.4000841789999976	0.378330283999996	10	stim1	n/a	n/a	n/a
132.63045423300002	0.005029852999985451	3.0217538950000016	n/a	10	choice1	0	n/a	n/a
135.65220812799998	0.7119292410000053	3.216668126000004	0.7119292410000053	10	stim2	n/a	0	n/a
136.364137369	0.0047388849999988455	2.5047388849999987	n/a	10	choice2	n/a	0	n/a
138.86887625399999	1.5	n/a	n/a	10	outcome	n/a	n/a	1
140.36887625399999	8.066898092999995	10.650252519000002	n/a	10	ITI_onset	n/a	n/a	n/a
148.435774347	0.5583745479999925	2.5833544260000054	0.5583745479999925	11	stim1	n/a	n/a	n/a
148.99414889500002	0.008257119000016246	2.024979878000013	n/a	11	choice1	0	n/a	n/a
151.01912877300003	0.45108365299997966	2.966722742999991	0.45108365299997966	11	stim2	n/a	1	n/a
151.470212426	0.015639090000011492	2.5156390900000116	n/a	11	choice2	n/a	1	n/a
153.98585151600003	1.5	n/a	n/a	11	outcome	n/a	n/a	0
155.48585151600003	3.0667415420000035	7.033444554999995	n/a	11	ITI_onset	n/a	n/a	n/a
158.552593058	0.43158082499998274	3.966703012999991	0.43158082499998274	12	stim1	n/a	n/a	n/a
158.98417388299998	0.018485244000010424	3.5351221880000083	n/a	12	choice1	1	n/a	n/a
162.51929607099999	1.6468857040000149	7.1667298650000015	1.6468857040000149	12	stim2	n/a	0	n/a
164.16618177500004	0.019844160999986343	5.519844160999987	n/a	12	choice2	n/a	0	n/a
169.68602593600002	1.5	n/a	n/a	12	outcome	n/a	n/a	1
171.18602593600002	3.066791587000014	8.650298715000012	n/a	12	ITI_onset	n/a	n/a	n/a
174.25281752300003	0.561670786999981	5.583507127999997	0.561670786999981	13	stim1	n/a	n/a	n/a
174.81448831	0.005015095999988261	5.021836341000016	n/a	13	choice1	0	n/a	n/a
179.83632465099998	0.5443577529999893	3.049965047999984	0.5443577529999893	13	stim2	n/a	1	n/a
180.38068240400003	0.005607294999994338	2.505607294999994	n/a	13	choice2	n/a	1	n/a
182.88628969899997	1.5	n/a	n/a	13	outcome	n/a	n/a	1
184.38628969899997	2.5667362490000087	7.533591643000022	n/a	13	ITI_onset	n/a	n/a	n/a
186.953025948	0.4396631059999927	4.966855394000013	0.4396631059999927	14	stim1	n/a	n/a	n/a
187.39268905400002	0.010391414000012447	4.527192288000021	n/a	14	choice1	0	n/a	n/a
191.919881342	2.1407197319999978	4.649986092999985	2.1407197319999978	14	stim2	n/a	1	n/a
194.06060107400003	0.009266360999987228	2.509266360999987	n/a	14	choice2	n/a	1	n/a
196.569867435	1.5	n/a	n/a	14	outcome	n/a	n/a	0
198.069867435	7.566797202000016	10.550205329999997	n/a	14	ITI_onset	n/a	n/a	n/a
205.63666463700002	0.45384768099998474	2.983408127999981	0.45384768099998474	15	stim1	n/a	n/a	n/a
206.09051231799998	0.012869927999970969	2.529560446999996	n/a	15	choice1	0	n/a	n/a
208.62007276499997	1.5960777479999815	8.61713929999998	1.5960777479999815	15	stim2	n/a	1	n/a
210.216150513	0.02106155199999921	7.021061551999999	n/a	15	choice2	n/a	1	n/a
217.237212065	1.5	n/a	n/a	15	outcome	n/a	n/a	1
218.737212065	5.5664368320000355	13.516603472000046	n/a	15	ITI_onset	n/a	n/a	n/a
224.30364889700002	0.41544609599999965	7.950166640000011	0.41544609599999965	16	stim1	n/a	n/a	n/a
224.719094993	0.017868342000001577	7.5347205440000105	n/a	16	choice1	0	n/a	n/a
232.25381553700004	1.009601920999994	5.016686187999963	1.009601920999994	16	stim2	n/a	1	n/a
233.263417458	0.007084266999969259	4.00708426699997	n/a	16	choice2	n/a	1	n/a
237.27050172499997	1.5	n/a	n/a	16	outcome	n/a	n/a	1
238.77050172499997	3.066772820000013	6.46686533900004	n/a	16	ITI_onset	n/a	n/a	n/a
241.837274545	0.3688579679999966	3.4000925190000273	0.3688579679999966	17	stim1	n/a	n/a	n/a
242.206132513	0.01446976700000232	3.0312345510000305	n/a	17	choice1	0	n/a	n/a
245.237367064	0.5401651940000011	4.549983013999998	0.5401651940000011	17	stim2	n/a	1	n/a
245.777532258	0.009817819999996574	4.009817819999997	n/a	17	choice2	n/a	1	n/a
249.78735007800003	1.5	n/a	n/a	17	outcome	n/a	n/a	1
251.28735007800003	5.066814202999987	9.050216236000008	n/a	17	ITI_onset	n/a	n/a	n/a
256.354164281	0.4543744379999698	3.9834020330000204	0.4543744379999698	18	stim1	n/a	n/a	n/a
256.80853871899996	0.012281256999995094	3.5290275950000507	n/a	18	choice1	1	n/a	n/a
260.337566314	0.3561862949999631	3.8667134069999447	0.3561862949999631	18	stim2	n/a	0	n/a
260.693752609	0.01052711199998157	3.5105271119999815	n/a	18	choice2	n/a	0	n/a
264.204279721	1.5	n/a	n/a	18	outcome	n/a	n/a	1
265.704279721	2.1167702700000373	4.916766997999978	n/a	18	ITI_onset	n/a	n/a	n/a
267.821049991	0.778281971999968	2.79999672799994	0.778281971999968	19	stim1	n/a	n/a	n/a
268.599331963	0.005020228000008501	2.021714755999972	n/a	19	choice1	1	n/a	n/a
270.62104671899993	0.9884623620000784	5.000008341000066	0.9884623620000784	19	stim2	n/a	0	n/a
271.609509081	0.01154597899998771	4.011545978999988	n/a	19	choice2	n/a	0	n/a
275.62105506	1.5	n/a	n/a	19	outcome	n/a	n/a	0
277.12105506	2.566806664999982	9.76694531499996	n/a	19	ITI_onset	n/a	n/a	n/a
279.687861725	1.6745227830000222	7.200138649999979	1.6745227830000222	20	stim1	n/a	n/a	n/a
281.362384508	0.008859904999961145	5.525615866999956	n/a	20	choice1	1	n/a	n/a
286.888000375	0.5391386280000443	4.550015735000023	0.5391386280000443	20	stim2	n/a	1	n/a
287.42713900300004	0.010877106999978424	4.0108771069999785	n/a	20	choice2	n/a	1	n/a
291.43801611	1.5	n/a	n/a	20	outcome	n/a	n/a	1
292.93801611	2.5667672059999895	7.6003105690000226	n/a	20	ITI_onset	n/a	n/a	n/a
295.504783316	1.0122780500000226	5.0335433630000335	1.0122780500000226	21	stim1	n/a	n/a	n/a
296.517061366	0.0044071750000002794	4.02126531300001	n/a	21	choice1	1	n/a	n/a
300.538326679	0.6881902249999694	3.1998779989999604	0.6881902249999694	21	stim2	n/a	1	n/a
301.226516904	0.011687773999990896	2.511687773999991	n/a	21	choice2	n/a	1	n/a
303.738204678	1.5	n/a	n/a	21	outcome	n/a	n/a	1
305.238204678	2.5667955969999894	8.583624540999997	n/a	21	ITI_onset	n/a	n/a	n/a
307.80500027499994	0.4885475340000121	6.016828944000008	0.4885475340000121	22	stim1	n/a	n/a	n/a
308.29354780899996	0.011431774000055156	5.528281409999996	n/a	22	choice1	1	n/a	n/a
313.821829219	0.7176786519999733	3.733340840000019	0.7176786519999733	22	stim2	n/a	0	n/a
314.53950787099996	0.015662188000045717	3.0156621880000456	n/a	22	choice2	n/a	0	n/a
317.555170059	1.5	n/a	n/a	22	outcome	n/a	n/a	0
319.055170059	3.066721170999983	10.950169687999994	n/a	22	ITI_onset	n/a	n/a	n/a
322.12189122999996	0.348505336000002	7.883448517000011	0.348505336000002	23	stim1	n/a	n/a	n/a
322.470396566	0.018162196999997833	7.53494318100001	n/a	23	choice1	0	n/a	n/a
330.005339747	0.5596863069999963	2.566677863000019	0.5596863069999963	23	stim2	n/a	1	n/a
330.565026054	0.006991556000022684	2.0069915560000227	n/a	23	choice2	n/a	1	n/a
332.57201761	1.5	n/a	n/a	23	outcome	n/a	n/a	1
334.07201761	6.066825751999975	8.350414587999985	n/a	23	ITI_onset	n/a	n/a	n/a
340.138843362	0.24926015099999496	2.28358883600001	0.24926015099999496	24	stim1	n/a	n/a	n/a
340.388103513	0.01743301400000928	2.034328685000015	n/a	24	choice1	1	n/a	n/a
342.42243219799997	0.4463053090000176	2.4664689890000155	0.4463053090000176	24	stim2	n/a	0	n/a
342.868737507	0.02016367999999784	2.020163679999998	n/a	24	choice2	n/a	0	n/a
344.888901187	1.5	n/a	n/a	24	outcome	n/a	n/a	1
346.388901187	3.5667633560000103	10.183535710999974	n/a	24	ITI_onset	n/a	n/a	n/a
349.955664543	0.5808239409999806	6.616772354999965	0.5808239409999806	25	stim1	n/a	n/a	n/a
350.536488484	0.019191970999992918	6.035948413999984	n/a	25	choice1	1	n/a	n/a
356.572436898	0.6112494300000253	5.616708194000006	0.6112494300000253	25	stim2	n/a	0	n/a
357.183686328	0.005458763999980874	5.005458763999981	n/a	25	choice2	n/a	0	n/a
362.189145092	1.5	n/a	n/a	25	outcome	n/a	n/a	0
363.689145092	1.0	1.0	n/a	25	ITI_onset	n/a	n/a	n/a
