onset	duration	duration2fb	response_time	trial	event	choice1	state	reward
0.0	0.28950542699999643	5.333414495999998	0.28950542699999643	1	stim1	n/a	n/a	n/a
0.28950542699999815	0.027546266000001197	5.0439090690000015	n/a	1	choice1	0	n/a	n/a
5.333414496	0.2910070990000022	2.799979918000001	0.2910070990000022	1	stim2	n/a	0	n/a
5.624421595000001	0.008972818999998708	2.508972818999999	n/a	1	choice2	n/a	0	n/a
8.133394414000001	1.5	n/a	n/a	1	outcome	n/a	n/a	0
9.633394414000001	3.0668024299999996	5.816839322000003	n/a	1	ITI_onset	n/a	n/a	n/a
12.700196844	0.22667901100000382	2.750036892000004	0.22667901100000382	2	stim1	n/a	n/a	n/a
12.926875855000002	0.006773723999995127	2.523357881	n/a	2	choice1	1	n/a	n/a
15.450233736000001	0.31070238899999825	4.816684374999997	0.31070238899999825	2	stim2	n/a	1	n/a
15.760936125	0.00598198599999887	4.505981985999999	n/a	2	choice2	n/a	1	n/a
20.266918111000003	1.5	n/a	n/a	2	outcome	n/a	n/a	1
21.766918111000003	2.566805637999998	5.866874097	n/a	2	ITI_onset	n/a	n/a	n/a
24.333723749	0.27215198800000506	3.300068459000002	0.27215198800000506	3	stim1	n/a	n/a	n/a
24.605875737000005	0.011204314999995404	3.0279164709999966	n/a	3	choice1	0	n/a	n/a
27.633792208000003	0.2700635699999984	3.2833171650000006	0.2700635699999984	3	stim2	n/a	0	n/a
27.903855778	0.013253595000001952	3.013253595000002	n/a	3	choice2	n/a	0	n/a
30.917109373000002	1.5	n/a	n/a	3	outcome	n/a	n/a	1
32.417109373	2.0667270409999983	6.333599278000001	n/a	3	ITI_onset	n/a	n/a	n/a
34.483836413999995	0.23143585699999675	4.266872237000003	0.23143585699999675	4	stim1	n/a	n/a	n/a
34.715272270999996	0.018596224000000803	4.035436380000006	n/a	4	choice1	1	n/a	n/a
38.750708651000004	0.3095170259999941	8.316581717999995	0.3095170259999941	4	stim2	n/a	1	n/a
39.060225677	0.007064691999999923	8.007064692	n/a	4	choice2	n/a	1	n/a
47.067290369	1.5	n/a	n/a	4	outcome	n/a	n/a	1
48.567290369	7.066932675000004	10.383625391000008	n/a	4	ITI_onset	n/a	n/a	n/a
55.634223044	0.2871000570000033	3.316692716000005	0.2871000570000033	5	stim1	n/a	n/a	n/a
55.921323101000006	0.012880823999992571	3.0295926590000017	n/a	5	choice1	0	n/a	n/a
58.95091576000001	0.2665292999999947	6.283342829000001	0.2665292999999947	5	stim2	n/a	0	n/a
59.217445059999996	0.016813529000006384	6.016813529000006	n/a	5	choice2	n/a	0	n/a
65.234258589	1.5	n/a	n/a	5	outcome	n/a	n/a	0
66.734258589	3.0668120539999943	8.316938449999986	n/a	5	ITI_onset	n/a	n/a	n/a
69.801070643	0.22419761099999597	5.250126395999993	0.22419761099999597	6	stim1	n/a	n/a	n/a
70.025268254	0.009148618999999598	5.025928784999996	n/a	6	choice1	1	n/a	n/a
75.05119703899999	0.2646016030000028	2.2833043330000073	0.2646016030000028	6	stim2	n/a	1	n/a
75.315798642	0.01870273000000452	2.0187027300000047	n/a	6	choice2	n/a	1	n/a
77.334501372	1.5	n/a	n/a	6	outcome	n/a	n/a	1
78.834501372	6.566835793000005	13.85027197500001	n/a	6	ITI_onset	n/a	n/a	n/a
85.401337165	0.2534595239999908	7.283436182000005	0.2534595239999908	7	stim1	n/a	n/a	n/a
85.654796689	0.013198738000006415	7.029976658000014	n/a	7	choice1	0	n/a	n/a
92.684773347	0.25557938099998867	3.26667558499999	0.25557938099998867	7	stim2	n/a	0	n/a
92.940352728	0.011096204000001308	3.011096204000001	n/a	7	choice2	n/a	0	n/a
95.951448932	1.5	n/a	n/a	7	outcome	n/a	n/a	0
97.451448932	4.066819753999996	7.900205377999984	n/a	7	ITI_onset	n/a	n/a	n/a
101.518268686	0.3099706399999996	3.833385623999988	0.3099706399999996	8	stim1	n/a	n/a	n/a
101.82823932599999	0.006687107999998262	3.523414983999988	n/a	8	choice1	0	n/a	n/a
105.35165430999999	0.311684041000015	7.31664748200003	0.311684041000015	8	stim2	n/a	0	n/a
105.663338351	0.004963441000014427	7.004963441000014	n/a	8	choice2	n/a	0	n/a
112.668301792	1.5	n/a	n/a	8	outcome	n/a	n/a	0
114.168301792	4.066853757999983	6.833582916999992	n/a	8	ITI_onset	n/a	n/a	n/a
118.23515555	0.23004261600002066	2.7667291590000094	0.23004261600002066	9	stim1	n/a	n/a	n/a
118.46519816600002	0.01997470799999428	2.536686542999989	n/a	9	choice1	1	n/a	n/a
121.001884709	0.378216997999989	2.3833077979999944	0.378216997999989	9	stim2	n/a	1	n/a
121.380101707	0.005090800000005401	2.0050908000000054	n/a	9	choice2	n/a	1	n/a
123.385192507	1.5	n/a	n/a	9	outcome	n/a	n/a	1
124.885192507	2.5667982590000027	10.900251250999979	n/a	9	ITI_onset	n/a	n/a	n/a
127.451990766	0.30815746999997645	8.333452991999977	0.30815746999997645	10	stim1	n/a	n/a	n/a
127.76014823599996	0.008502845000009984	8.025295522	n/a	10	choice1	1	n/a	n/a
135.78544375799999	0.2572838000000047	2.266678794000007	0.2572838000000047	10	stim2	n/a	0	n/a
136.04272755799997	0.009394994000002044	2.009394994000002	n/a	10	choice2	n/a	0	n/a
138.052122552	1.5	n/a	n/a	10	outcome	n/a	n/a	0
139.552122552	7.066846700000024	13.833591578000021	n/a	10	ITI_onset	n/a	n/a	n/a
146.618969252	0.230043256999983	6.766744877999998	0.230043256999983	11	stim1	n/a	n/a	n/a
146.84901250899998	0.019921455000003335	6.536701621000015	n/a	11	choice1	1	n/a	n/a
153.38571413	0.28897866999998223	6.800017130999971	0.28897866999998223	11	stim2	n/a	0	n/a
153.67469279999997	0.011038460999989183	6.511038460999989	n/a	11	choice2	n/a	0	n/a
160.18573126099997	1.5	n/a	n/a	11	outcome	n/a	n/a	1
161.68573126099997	2.5668303390000076	8.366919330000034	n/a	11	ITI_onset	n/a	n/a	n/a
164.25256159999998	0.2630758710000082	5.800088991000026	0.2630758710000082	12	stim1	n/a	n/a	n/a
164.515637471	0.02025958000001265	5.537013120000018	n/a	12	choice1	0	n/a	n/a
170.052650591	0.25363307700000587	7.766662431999983	0.25363307700000587	12	stim2	n/a	0	n/a
170.30628366800002	0.013029354999976931	7.513029354999977	n/a	12	choice2	n/a	0	n/a
177.81931302299998	1.5	n/a	n/a	12	outcome	n/a	n/a	1
179.31931302299998	4.066847021000023	11.817000043000007	n/a	12	ITI_onset	n/a	n/a	n/a
183.386160044	0.2264252569999662	7.750153021999984	0.2264252569999662	13	stim1	n/a	n/a	n/a
183.61258530099997	0.0069475990000064484	7.523727765000018	n/a	13	choice1	1	n/a	n/a
191.13631306599999	0.3538190790000081	3.3666668599999974	0.3538190790000081	13	stim2	n/a	0	n/a
191.49013214500002	0.012847780999989481	3.0128477809999894	n/a	13	choice2	n/a	0	n/a
194.502979926	1.5	n/a	n/a	13	outcome	n/a	n/a	0
196.002979926	3.066839321999985	9.33353704200001	n/a	13	ITI_onset	n/a	n/a	n/a
199.069819248	0.24230204599999705	6.266697720000026	0.24230204599999705	14	stim1	n/a	n/a	n/a
199.31212129399998	0.007663628000009339	6.024395674000028	n/a	14	choice1	1	n/a	n/a
205.336516968	0.24252275799997733	4.750051648999972	0.24252275799997733	14	stim2	n/a	1	n/a
205.579039726	0.007528890999994473	4.507528890999994	n/a	14	choice2	n/a	1	n/a
210.08656861699998	1.5	n/a	n/a	14	outcome	n/a	n/a	1
211.58656861699998	2.5667738780000073	6.916809743999998	n/a	14	ITI_onset	n/a	n/a	n/a
214.15334249499998	0.3152398059999978	4.350035865999991	0.3152398059999978	15	stim1	n/a	n/a	n/a
214.46858230099997	0.018089678000018466	4.0347960599999935	n/a	15	choice1	0	n/a	n/a
218.503378361	0.3022021100000129	8.316700415000028	0.3022021100000129	15	stim2	n/a	0	n/a
218.80558047099998	0.014498305000015534	8.014498305000016	n/a	15	choice2	n/a	0	n/a
226.820078776	1.5	n/a	n/a	15	outcome	n/a	n/a	0
228.320078776	3.5668341889999864	6.35026780500001	n/a	15	ITI_onset	n/a	n/a	n/a
231.886912965	0.24870139599998947	2.783433616000024	0.24870139599998947	16	stim1	n/a	n/a	n/a
232.13561436099997	0.018004024000023492	2.5347322200000346	n/a	16	choice1	0	n/a	n/a
234.67034658100002	0.2727531699999818	4.283304654000007	0.2727531699999818	16	stim2	n/a	0	n/a
234.943099751	0.010551484000025084	4.010551484000025	n/a	16	choice2	n/a	0	n/a
238.953651235	1.5	n/a	n/a	16	outcome	n/a	n/a	0
240.453651235	5.566847341999994	12.883628598999989	n/a	16	ITI_onset	n/a	n/a	n/a
246.020498577	0.295705558000016	7.316781256999995	0.295705558000016	17	stim1	n/a	n/a	n/a
246.31620413500002	0.004284624999971129	7.021075698999979	n/a	17	choice1	1	n/a	n/a
253.33727983400001	0.26168134700000517	2.266657299000013	0.26168134700000517	17	stim2	n/a	1	n/a
253.598961181	0.004975952000007965	2.004975952000008	n/a	17	choice2	n/a	1	n/a
255.60393713300004	1.5	n/a	n/a	17	outcome	n/a	n/a	0
257.10393713300004	4.066784464999976	7.350162581999961	n/a	17	ITI_onset	n/a	n/a	n/a
261.170721598	0.26034809599997244	3.2833781169999856	0.26034809599997244	18	stim1	n/a	n/a	n/a
261.431069694	0.006329735000035725	3.023030021000013	n/a	18	choice1	1	n/a	n/a
264.454099715	0.2540786710000248	5.766684247000026	0.2540786710000248	18	stim2	n/a	1	n/a
264.708178386	0.012605576000001747	5.512605576000002	n/a	18	choice2	n/a	1	n/a
270.220783962	1.5	n/a	n/a	18	outcome	n/a	n/a	0
271.720783962	3.0668637029999517	9.866940181999992	n/a	18	ITI_onset	n/a	n/a	n/a
274.78764766499995	0.26734253100003114	6.800076479000039	0.26734253100003114	19	stim1	n/a	n/a	n/a
275.054990196	0.015981371000001673	6.532733948000009	n/a	19	choice1	1	n/a	n/a
281.587724144	0.29280134199996244	5.800002695000032	0.29280134199996244	19	stim2	n/a	1	n/a
281.88052548599995	0.007201353000069502	5.507201353000069	n/a	19	choice2	n/a	1	n/a
287.38772683900004	1.5	n/a	n/a	19	outcome	n/a	n/a	0
288.88772683900004	5.066846058999945	9.350254651999974	n/a	19	ITI_onset	n/a	n/a	n/a
293.954572898	0.26246795199997724	4.283408593000029	0.26246795199997724	20	stim1	n/a	n/a	n/a
294.21704084999993	0.004200254000083078	4.020940641000052	n/a	20	choice1	1	n/a	n/a
298.237981491	0.2959118339999695	2.3166760339999457	0.2959118339999695	20	stim2	n/a	1	n/a
298.53389332499995	0.02076419999997597	2.020764199999976	n/a	20	choice2	n/a	1	n/a
300.5546575249999	1.5	n/a	n/a	20	outcome	n/a	n/a	0
302.0546575249999	2.566747894000029	5.833476090000011	n/a	20	ITI_onset	n/a	n/a	n/a
304.621405419	0.24309699200000615	3.2667281959999817	0.24309699200000615	21	stim1	n/a	n/a	n/a
304.864502411	0.006914235999982339	3.0236312039999755	n/a	21	choice1	0	n/a	n/a
307.88813361499996	0.32895760100003096	3.333329163000046	0.32895760100003096	21	stim2	n/a	0	n/a
308.217091216	0.00437156200001482	3.004371562000015	n/a	21	choice2	n/a	0	n/a
311.221462778	1.5	n/a	n/a	21	outcome	n/a	n/a	1
312.721462778	5.5668322639999674	7.866861586000014	n/a	21	ITI_onset	n/a	n/a	n/a
318.28829504199996	0.2661651900000288	2.3000293220000456	0.2661651900000288	22	stim1	n/a	n/a	n/a
318.554460232	0.017150691999995617	2.033864132000017	n/a	22	choice1	0	n/a	n/a
320.588324364	0.3756428859999287	2.883358162999968	0.3756428859999287	22	stim2	n/a	0	n/a
320.96396724999994	0.00771527700003935	2.5077152770000395	n/a	22	choice2	n/a	0	n/a
323.471682527	1.5	n/a	n/a	22	outcome	n/a	n/a	1
324.971682527	3.100109970999998	5.916813273000007	n/a	22	ITI_onset	n/a	n/a	n/a
328.071792498	0.2790983040000428	2.816703302000009	0.2790983040000428	23	stim1	n/a	n/a	n/a
328.35089080200004	0.02083156899991445	2.537604997999966	n/a	23	choice1	1	n/a	n/a
330.8884958	0.3653579889999819	4.383311647000024	0.3653579889999819	23	stim2	n/a	1	n/a
331.253853789	0.017953658000042196	4.017953658000042	n/a	23	choice2	n/a	1	n/a
335.271807447	1.5	n/a	n/a	23	outcome	n/a	n/a	1
336.771807447	4.566840284999984	8.35026427699998	n/a	23	ITI_onset	n/a	n/a	n/a
341.338647732	0.24978570399997987	3.7834239919999963	0.24978570399997987	24	stim1	n/a	n/a	n/a
341.588433436	0.01683470300002955	3.5336382880000166	n/a	24	choice1	0	n/a	n/a
345.122071724	0.30931716699997197	2.3166266300000133	0.30931716699997197	24	stim2	n/a	1	n/a
345.431388891	0.0073094630000414326	2.0073094630000416	n/a	24	choice2	n/a	1	n/a
347.438698354	1.5	n/a	n/a	24	outcome	n/a	n/a	0
348.938698354	6.066867231999989	10.800242012999952	n/a	24	ITI_onset	n/a	n/a	n/a
355.005565586	0.20984142099996098	4.733374780999962	0.20984142099996098	25	stim1	n/a	n/a	n/a
355.21540700699995	0.006811901000037324	4.523533360000001	n/a	25	choice1	1	n/a	n/a
359.73894036699994	0.2669649480000371	4.78334154600004	0.2669649480000371	25	stim2	n/a	1	n/a
360.005905315	0.01637659800000256	4.516376598000003	n/a	25	choice2	n/a	1	n/a
364.52228191300003	1.5	n/a	n/a	25	outcome	n/a	n/a	0
366.02228191300003	1.0	1.0	n/a	25	ITI_onset	n/a	n/a	n/a
