onset	duration	duration2fb	response_time	trial	event	choice1	state	reward
0.0	0.35464676600000167	3.883384036000003	0.35464676600000167	1	stim1	n/a	n/a	n/a
0.3546467660000019	0.01243011000000115	3.5287372700000015	n/a	1	choice1	1	n/a	n/a
3.883384036000006	0.4620444889999999	3.4833065949999984	0.4620444889999999	1	stim2	n/a	1	n/a
4.345428525000006	0.021262105999998313	3.0212621059999982	n/a	1	choice2	n/a	1	n/a
7.366690631000004	1.5	n/a	n/a	1	outcome	n/a	n/a	1
8.866690631000004	4.566875637000004	6.900216348000002	n/a	1	ITI_onset	n/a	n/a	n/a
13.433566268000007	0.2998830029999954	2.3333407109999973	0.2998830029999954	2	stim1	n/a	n/a	n/a
13.733449271000005	0.016768633999996382	2.0334577080000016	n/a	2	choice1	0	n/a	n/a
15.766906979000005	0.3375647099999987	6.850005084999997	0.3375647099999987	2	stim2	n/a	0	n/a
16.104471689	0.012440374999998312	6.512440374999998	n/a	2	choice2	n/a	0	n/a
22.616912064000005	1.5	n/a	n/a	2	outcome	n/a	n/a	0
24.116912064000005	4.566880930000007	11.116981357000004	n/a	2	ITI_onset	n/a	n/a	n/a
28.683792994000008	0.5165330049999902	6.550100426999998	0.5165330049999902	3	stim1	n/a	n/a	n/a
29.200325999	0.016815791000008174	6.033567422000007	n/a	3	choice1	1	n/a	n/a
35.233893421000005	0.308617796999999	3.316705852999992	0.308617796999999	3	stim2	n/a	1	n/a
35.54251121800001	0.00808805599999323	3.0080880559999934	n/a	3	choice2	n/a	1	n/a
38.550599274	1.5	n/a	n/a	3	outcome	n/a	n/a	1
40.050599274	4.066758704000015	8.100203581000017	n/a	3	ITI_onset	n/a	n/a	n/a
44.117357978000015	0.4967154709999886	4.033444877000002	0.4967154709999886	4	stim1	n/a	n/a	n/a
44.614073449	0.019934948000001895	3.536729406000013	n/a	4	choice1	1	n/a	n/a
48.15080285500001	0.4987718099999911	3.016614487999992	0.4987718099999911	4	stim2	n/a	1	n/a
48.649574665	0.01784267800000089	2.517842678000001	n/a	4	choice2	n/a	1	n/a
51.16741734300001	1.5	n/a	n/a	4	outcome	n/a	n/a	1
52.66741734300001	5.566849812	9.483573179999992	n/a	4	ITI_onset	n/a	n/a	n/a
58.23426715500001	0.3833652689999872	3.9167233679999915	0.3833652689999872	5	stim1	n/a	n/a	n/a
58.61763242399999	0.016639351000005263	3.5333580990000044	n/a	5	choice1	1	n/a	n/a
62.150990523000004	0.5104400159999932	5.016696614000001	0.5104400159999932	5	stim2	n/a	1	n/a
62.661430538999994	0.006256598000007216	4.506256598000007	n/a	5	choice2	n/a	1	n/a
67.167687137	1.5	n/a	n/a	5	outcome	n/a	n/a	1
68.667687137	4.566866815000001	6.966871113999994	n/a	5	ITI_onset	n/a	n/a	n/a
73.234553952	0.3658745110000018	2.400004298999993	0.3658745110000018	6	stim1	n/a	n/a	n/a
73.600428463	0.01742210700000578	2.034129787999991	n/a	6	choice1	1	n/a	n/a
75.63455825099999	0.39055219300001043	3.9000065440000182	0.39055219300001043	6	stim2	n/a	1	n/a
76.025110444	0.009454351000007591	3.5094543510000076	n/a	6	choice2	n/a	1	n/a
79.53456479500001	1.5	n/a	n/a	6	outcome	n/a	n/a	1
81.03456479500001	3.066837140999996	5.883532567999995	n/a	6	ITI_onset	n/a	n/a	n/a
84.101401936	0.2929841599999927	2.8166954269999986	0.2929841599999927	7	stim1	n/a	n/a	n/a
84.394386096	0.006977761000001919	2.523711267000006	n/a	7	choice1	1	n/a	n/a
86.918097363	0.5609910079999972	7.066619156000001	0.5609910079999972	7	stim2	n/a	1	n/a
87.479088371	0.00562814800000342	6.505628148000003	n/a	7	choice2	n/a	1	n/a
93.984716519	1.5	n/a	n/a	7	outcome	n/a	n/a	0
95.484716519	2.567013420999996	10.867016724999994	n/a	7	ITI_onset	n/a	n/a	n/a
98.05172994	0.27378256499998677	8.300003303999999	0.27378256499998677	8	stim1	n/a	n/a	n/a
98.32551250499999	0.009383775000009337	8.026220739000012	n/a	8	choice1	0	n/a	n/a
106.351733244	0.3987063349999953	8.41667155900001	0.3987063349999953	8	stim2	n/a	0	n/a
106.750439579	0.01796522399999958	8.017965224000013	n/a	8	choice2	n/a	0	n/a
114.76840480300002	1.5	n/a	n/a	8	outcome	n/a	n/a	0
116.26840480300002	2.566888148999977	5.983582162999984	n/a	8	ITI_onset	n/a	n/a	n/a
118.83529295199999	0.3847135980000021	3.416694014000008	0.3847135980000021	9	stim1	n/a	n/a	n/a
119.22000654999998	0.015223652999993646	3.031980416000006	n/a	9	choice1	0	n/a	n/a
122.25198696599999	0.42065046500001335	6.433319891999999	0.42065046500001335	9	stim2	n/a	0	n/a
122.67263743100001	0.012669426999986171	6.012669426999986	n/a	9	choice2	n/a	0	n/a
128.685306858	1.5	n/a	n/a	9	outcome	n/a	n/a	0
130.185306858	2.566882374000008	4.833567840000003	n/a	9	ITI_onset	n/a	n/a	n/a
132.75218923199998	0.24639025700002093	2.2666854659999953	0.24639025700002093	10	stim1	n/a	n/a	n/a
132.998579489	0.003549351999972714	2.0202952089999746	n/a	10	choice1	1	n/a	n/a
135.018874698	0.40648225000000093	2.416657764000003	0.40648225000000093	10	stim2	n/a	1	n/a
135.425356948	0.010175514000002295	2.0101755140000024	n/a	10	choice2	n/a	1	n/a
137.43553246200003	1.5	n/a	n/a	10	outcome	n/a	n/a	1
138.93553246200003	7.566891356000007	10.000223759000015	n/a	10	ITI_onset	n/a	n/a	n/a
146.502423818	0.4051291090000013	2.4333324030000076	0.4051291090000013	11	stim1	n/a	n/a	n/a
146.90755292699998	0.011473798999999417	2.028203294000006	n/a	11	choice1	1	n/a	n/a
148.93575622100002	0.38681164400000123	5.89997285999998	0.38681164400000123	11	stim2	n/a	1	n/a
149.322567865	0.013161215999978595	5.513161215999979	n/a	11	choice2	n/a	1	n/a
154.835729081	1.5	n/a	n/a	11	outcome	n/a	n/a	1
156.335729081	4.5668713060000155	9.43372217699999	n/a	11	ITI_onset	n/a	n/a	n/a
160.902600387	0.34287654800000017	4.866850870999973	0.34287654800000017	12	stim1	n/a	n/a	n/a
161.245476935	0.007116987999994308	4.523974322999973	n/a	12	choice1	1	n/a	n/a
165.769451258	0.31603217000002043	6.333224261000025	0.31603217000002043	12	stim2	n/a	1	n/a
166.08548342800003	0.017192091000004437	6.0171920910000045	n/a	12	choice2	n/a	1	n/a
172.102675519	1.5	n/a	n/a	12	outcome	n/a	n/a	1
173.602675519	2.5668980929999963	6.416896601999993	n/a	12	ITI_onset	n/a	n/a	n/a
176.16957361200002	0.3148577139999834	3.849998508999997	0.3148577139999834	13	stim1	n/a	n/a	n/a
176.484431326	0.01840087300000596	3.535140795000014	n/a	13	choice1	1	n/a	n/a
180.019572121	0.5688971690000035	5.083400942000008	0.5688971690000035	13	stim2	n/a	0	n/a
180.58846929000003	0.014503773000004003	4.514503773000004	n/a	13	choice2	n/a	0	n/a
185.10297306300004	1.5	n/a	n/a	13	outcome	n/a	n/a	1
186.60297306300004	2.066788379000005	4.4002105750000045	n/a	13	ITI_onset	n/a	n/a	n/a
188.66976144200004	0.29987819200000376	2.3334221959999994	0.29987819200000376	14	stim1	n/a	n/a	n/a
188.96963963400003	0.016757083999982568	2.033544003999996	n/a	14	choice1	0	n/a	n/a
191.003183638	0.38481240599998273	2.399903886999993	0.38481240599998273	14	stim2	n/a	0	n/a
191.38799604399998	0.01509148100001039	2.0150914810000105	n/a	14	choice2	n/a	0	n/a
193.403087525	1.5	n/a	n/a	14	outcome	n/a	n/a	1
194.903087525	7.0835972729999925	10.900301361999968	n/a	14	ITI_onset	n/a	n/a	n/a
201.986684798	0.29033048699999925	3.8167040889999773	0.29033048699999925	15	stim1	n/a	n/a	n/a
202.277015285	0.009585558999999194	3.526373601999978	n/a	15	choice1	0	n/a	n/a
205.80338888699998	0.33258297700001277	6.8499396410000335	0.33258297700001277	15	stim2	n/a	0	n/a
206.135971864	0.017356664000020828	6.517356664000021	n/a	15	choice2	n/a	0	n/a
212.65332852800003	1.5	n/a	n/a	15	outcome	n/a	n/a	1
214.15332852800003	3.066882052000001	6.934040156999981	n/a	15	ITI_onset	n/a	n/a	n/a
217.22021058	0.3370398779999814	3.8671581049999806	0.3370398779999814	16	stim1	n/a	n/a	n/a
217.557250458	0.012961357000021963	3.530118226999999	n/a	16	choice1	0	n/a	n/a
221.087368685	0.3469123289999843	2.3662521890000208	0.3469123289999843	16	stim2	n/a	0	n/a
221.43428101399996	0.019339860000036423	2.0193398600000365	n/a	16	choice2	n/a	0	n/a
223.45362087400002	1.5	n/a	n/a	16	outcome	n/a	n/a	1
224.95362087400002	4.566830083000008	8.433670367999992	n/a	16	ITI_onset	n/a	n/a	n/a
229.52045095700004	0.33006724999999276	3.866840284999984	0.33006724999999276	17	stim1	n/a	n/a	n/a
229.850518207	0.01988169499998912	3.536773034999991	n/a	17	choice1	0	n/a	n/a
233.387291242	0.4892879449999891	6.499870877000008	0.4892879449999891	17	stim2	n/a	1	n/a
233.876579187	0.010582932000019354	6.01058293200002	n/a	17	choice2	n/a	1	n/a
239.88716211900004	1.5	n/a	n/a	17	outcome	n/a	n/a	0
241.38716211900004	3.066839225999953	8.350261887	n/a	17	ITI_onset	n/a	n/a	n/a
244.454001345	0.2624768670000485	5.283422661000047	0.2624768670000485	18	stim1	n/a	n/a	n/a
244.71647821200003	0.004177160000021104	5.020945793999999	n/a	18	choice1	1	n/a	n/a
249.73742400600003	0.3781153470000136	6.883286672999966	0.3781153470000136	18	stim2	n/a	1	n/a
250.11553935300003	0.0051713259999523874	6.505171325999952	n/a	18	choice2	n/a	1	n/a
256.620710679	1.5	n/a	n/a	18	outcome	n/a	n/a	0
258.120710679	3.066887505999999	11.700373638000048	n/a	18	ITI_onset	n/a	n/a	n/a
261.187598185	0.6028832390000461	8.63348613200005	0.6028832390000461	19	stim1	n/a	n/a	n/a
261.79048142400006	0.013757265999971423	8.030602893000003	n/a	19	choice1	0	n/a	n/a
269.82108431700004	0.40244399599998726	6.916640440999938	0.40244399599998726	19	stim2	n/a	0	n/a
270.22352831300003	0.014196444999950472	6.514196444999951	n/a	19	choice2	n/a	0	n/a
276.73772475799996	1.5	n/a	n/a	19	outcome	n/a	n/a	1
278.23772475799996	5.066967386000033	10.51696480300004	n/a	19	ITI_onset	n/a	n/a	n/a
283.304692144	0.4169734340000432	5.449997417000006	0.4169734340000432	20	stim1	n/a	n/a	n/a
283.72166557800006	0.01629962099995464	5.033023982999962	n/a	20	choice1	0	n/a	n/a
288.754689561	0.528257992000028	5.533339173000015	0.528257992000028	20	stim2	n/a	0	n/a
289.28294755300004	0.005081180999986827	5.005081180999987	n/a	20	choice2	n/a	0	n/a
294.288028734	1.5	n/a	n/a	20	outcome	n/a	n/a	1
295.788028734	2.0668270349999656	4.483587776999979	n/a	20	ITI_onset	n/a	n/a	n/a
297.854855769	0.3911097469999804	2.416760742000013	0.3911097469999804	21	stim1	n/a	n/a	n/a
298.24596551599996	0.008876266000035684	2.0256509950000328	n/a	21	choice1	0	n/a	n/a
300.271616511	0.3118851630000281	2.3166311049999786	0.3118851630000281	21	stim2	n/a	0	n/a
300.58350167400005	0.004745941999950446	2.0047459419999503	n/a	21	choice2	n/a	0	n/a
302.588247616	1.5	n/a	n/a	21	outcome	n/a	n/a	1
304.088247616	2.5667604700000375	7.0001746770000315	n/a	21	ITI_onset	n/a	n/a	n/a
306.655008086	0.39694513199996434	4.433414206999994	0.39694513199996434	22	stim1	n/a	n/a	n/a
307.051953218	0.019744071000022814	4.03646907500003	n/a	22	choice1	0	n/a	n/a
311.088422293	0.4924882639999851	3.0000171630000114	0.4924882639999851	22	stim2	n/a	1	n/a
311.580910557	0.007528899000026286	2.507528899000026	n/a	22	choice2	n/a	1	n/a
314.08843945600006	1.5	n/a	n/a	22	outcome	n/a	n/a	0
315.58843945600006	5.0667736220000075	8.850194518999952	n/a	22	ITI_onset	n/a	n/a	n/a
320.65521307800003	0.2527398879999528	3.7834208969999454	0.2527398879999528	23	stim1	n/a	n/a	n/a
320.907952966	0.013930179000017234	3.5306810089999927	n/a	23	choice1	0	n/a	n/a
324.43863397499996	0.3472760230000131	4.8666989700000265	0.3472760230000131	23	stim2	n/a	0	n/a
324.785909998	0.019422947000013666	4.519422947000014	n/a	23	choice2	n/a	0	n/a
329.30533294500003	1.5	n/a	n/a	23	outcome	n/a	n/a	1
330.80533294500003	2.0667845300000045	8.516911551000026	n/a	23	ITI_onset	n/a	n/a	n/a
332.87211747500004	0.4238578409999609	6.450127021000022	0.4238578409999609	24	stim1	n/a	n/a	n/a
333.29597531599995	0.009435745000024327	6.026269180000061	n/a	24	choice1	0	n/a	n/a
339.32224449600005	0.3181594059999916	4.3332534539999905	0.3181594059999916	24	stim2	n/a	0	n/a
339.64040390200006	0.01509404799999902	4.015094047999999	n/a	24	choice2	n/a	0	n/a
343.65549795000004	1.5	n/a	n/a	24	outcome	n/a	n/a	0
345.15549795000004	3.0669319380000233	5.900224048000004	n/a	24	ITI_onset	n/a	n/a	n/a
348.2224298880001	0.3059962029999588	2.8332921099999804	0.3059962029999588	25	stim1	n/a	n/a	n/a
348.52842609100003	0.010565287999983412	2.5272959070000214	n/a	25	choice1	0	n/a	n/a
351.055721998	0.36343737899995177	6.3833476249999945	0.36343737899995177	25	stim2	n/a	0	n/a
351.41915937699997	0.019910246000043118	6.019910246000043	n/a	25	choice2	n/a	0	n/a
357.439069623	1.5	n/a	n/a	25	outcome	n/a	n/a	1
358.939069623	1.0	1.0	n/a	25	ITI_onset	n/a	n/a	n/a
