onset	duration	duration2fb	response_time	trial	event	choice1	state	reward
0.0	1.5920843349999996	5.650077344999998	1.5920843349999996	1	stim1	n/a	n/a	n/a
1.5920843349999991	0.024845164999998816	4.057993009999998	n/a	1	choice1	1	n/a	n/a
5.650077344999996	0.4664431320000003	2.9833314409999985	0.4664431320000003	1	stim2	n/a	0	n/a
6.116520476999998	0.016888308999998117	2.5168883089999983	n/a	1	choice2	n/a	0	n/a
8.633408785999993	1.5	n/a	n/a	1	outcome	n/a	n/a	1
10.133408785999993	4.066804162	7.050159663000006	n/a	1	ITI_onset	n/a	n/a	n/a
14.200212947999994	0.44634808500000145	2.9833555010000055	0.44634808500000145	2	stim1	n/a	n/a	n/a
14.646561032999994	0.02031030499999906	2.5370074160000042	n/a	2	choice1	1	n/a	n/a
17.183568449000003	0.4748722089999938	3.4833378569999986	0.4748722089999938	2	stim2	n/a	0	n/a
17.658440657999993	0.008465648000004876	3.008465648000005	n/a	2	choice2	n/a	0	n/a
20.666906305999998	1.5	n/a	n/a	2	outcome	n/a	n/a	1
22.166906305999998	5.566870246999999	11.667087879999999	n/a	2	ITI_onset	n/a	n/a	n/a
27.733776552999995	1.5515644560000001	6.100217633000001	1.5515644560000001	3	stim1	n/a	n/a	n/a
29.285341008999996	0.03176903799999854	4.548653177	n/a	3	choice1	1	n/a	n/a
33.833994186	0.477128088999998	2.4832428989999973	0.477128088999998	3	stim2	n/a	0	n/a
34.311122275	0.006114809999999125	2.0061148099999992	n/a	3	choice2	n/a	0	n/a
36.317237085	1.5	n/a	n/a	3	outcome	n/a	n/a	1
37.817237085	4.066840091999999	8.500221674000008	n/a	3	ITI_onset	n/a	n/a	n/a
41.884077176999995	0.40205974299999797	4.433381582000009	0.40205974299999797	4	stim1	n/a	n/a	n/a
42.28613691999999	0.01455030200001056	4.031321839000011	n/a	4	choice1	1	n/a	n/a
46.317458759000004	0.515651295999989	3.5333021519999894	0.515651295999989	4	stim2	n/a	0	n/a
46.83311005499999	0.01765085600000748	3.0176508560000004	n/a	4	choice2	n/a	0	n/a
49.850760910999995	1.5	n/a	n/a	4	outcome	n/a	n/a	1
51.350760910999995	8.066898157000002	16.134118954000005	n/a	4	ITI_onset	n/a	n/a	n/a
59.417659068000006	0.5377539229999966	8.067220797000001	0.5377539229999966	5	stim1	n/a	n/a	n/a
59.955412991	0.012328106000015396	7.529466874000005	n/a	5	choice1	1	n/a	n/a
67.484879865	0.7082642080000078	2.716283620000002	0.7082642080000078	5	stim2	n/a	0	n/a
68.19314407300001	0.00801941199999419	2.008019411999994	n/a	5	choice2	n/a	0	n/a
70.20116348500001	1.5	n/a	n/a	5	outcome	n/a	n/a	1
71.70116348500001	3.566808011999994	7.716877338000006	n/a	5	ITI_onset	n/a	n/a	n/a
75.26797149699999	0.6255308479999949	4.150069326000011	0.6255308479999949	6	stim1	n/a	n/a	n/a
75.89350234499999	0.007786189000005834	3.5245384780000166	n/a	6	choice1	1	n/a	n/a
79.41804082300001	0.7726510379999963	4.283330541999996	0.7726510379999963	6	stim2	n/a	0	n/a
80.190691861	0.010679503999999724	3.5106795039999996	n/a	6	choice2	n/a	0	n/a
83.701371365	1.5	n/a	n/a	6	outcome	n/a	n/a	1
85.201371365	5.066829184999981	8.350225813000012	n/a	6	ITI_onset	n/a	n/a	n/a
90.26820054999999	1.2522165830000158	3.2833966280000313	1.2522165830000158	7	stim1	n/a	n/a	n/a
91.520417133	0.014528487999996287	2.0311800450000157	n/a	7	choice1	1	n/a	n/a
93.55159717800002	0.6160036639999744	6.633326659999977	0.6160036639999744	7	stim2	n/a	0	n/a
94.16760084199998	0.017322996000002602	6.0173229960000025	n/a	7	choice2	n/a	0	n/a
100.18492383799999	1.5	n/a	n/a	7	outcome	n/a	n/a	1
101.68492383799999	3.0668683230000022	8.283805971000008	n/a	7	ITI_onset	n/a	n/a	n/a
104.751792161	1.1826753360000002	5.216937648000006	1.1826753360000002	8	stim1	n/a	n/a	n/a
105.934467497	0.017314655000009224	4.034262312000006	n/a	8	choice1	1	n/a	n/a
109.968729809	0.4984826059999905	3.0164847399999855	0.4984826059999905	8	stim2	n/a	0	n/a
110.46721241499999	0.01800213399999484	2.5180021339999947	n/a	8	choice2	n/a	0	n/a
112.98521454899999	1.5	n/a	n/a	8	outcome	n/a	n/a	1
114.48521454899996	2.0667294160000167	5.933532680000033	n/a	8	ITI_onset	n/a	n/a	n/a
116.55194396499998	0.339460653999995	3.8668032640000165	0.339460653999995	9	stim1	n/a	n/a	n/a
116.89140461899997	0.010570111000037286	3.5273426100000216	n/a	9	choice1	1	n/a	n/a
120.418747229	0.5806929709999822	3.099950404000003	0.5806929709999822	9	stim2	n/a	1	n/a
120.9994402	0.019257433000020682	2.519257433000021	n/a	9	choice2	n/a	1	n/a
123.518697633	1.5	n/a	n/a	9	outcome	n/a	n/a	0
125.018697633	3.0669270299999916	6.5502379389999845	n/a	9	ITI_onset	n/a	n/a	n/a
128.08562466299998	0.948570280999993	3.4833109089999925	0.948570280999993	10	stim1	n/a	n/a	n/a
129.03419494399998	0.01799411400000099	2.5347406279999998	n/a	10	choice1	0	n/a	n/a
131.568935572	0.3511885400000028	3.866590250999987	0.3511885400000028	10	stim2	n/a	1	n/a
131.92012411199997	0.015401710999984062	3.515401710999984	n/a	10	choice2	n/a	1	n/a
135.43552582299998	1.5	n/a	n/a	10	outcome	n/a	n/a	0
136.93552582299998	2.5669087440000147	10.967101418000006	n/a	10	ITI_onset	n/a	n/a	n/a
139.502434567	0.36925900499999986	8.40019267399999	0.36925900499999986	11	stim1	n/a	n/a	n/a
139.87169357199997	0.01408802699999069	8.03093366899999	n/a	11	choice1	1	n/a	n/a
147.90262724099998	0.8038907530000142	3.3165236210000293	0.8038907530000142	11	stim2	n/a	0	n/a
148.706517994	0.012632868000015151	2.512632868000015	n/a	11	choice2	n/a	0	n/a
151.219150862	1.5	n/a	n/a	11	outcome	n/a	n/a	1
152.719150862	5.066894949999988	10.116979866000008	n/a	11	ITI_onset	n/a	n/a	n/a
157.786045812	0.5225880009999965	5.050084916000022	0.5225880009999965	12	stim1	n/a	n/a	n/a
158.30863381299997	0.010741739000019151	4.527496915000025	n/a	12	choice1	1	n/a	n/a
162.836130728	0.5035779069999698	2.5166483489999956	0.5035779069999698	12	stim2	n/a	0	n/a
163.339708635	0.013070442000025651	2.013070442000026	n/a	12	choice2	n/a	0	n/a
165.352779077	1.5	n/a	n/a	12	outcome	n/a	n/a	1
166.852779077	2.10013807299998	6.5834987069999915	n/a	12	ITI_onset	n/a	n/a	n/a
168.95291715	0.4502621919999947	4.483360634000012	0.4502621919999947	13	stim1	n/a	n/a	n/a
169.403179342	0.01640133100000094	4.033098442000017	n/a	13	choice1	1	n/a	n/a
173.436277784	0.4323348039999837	2.9500180609999807	0.4323348039999837	13	stim2	n/a	0	n/a
173.868612588	0.017683256999996958	2.517683256999997	n/a	13	choice2	n/a	0	n/a
176.38629584499998	1.5	n/a	n/a	13	outcome	n/a	n/a	1
177.88629584499998	3.066778818999999	7.500204029999994	n/a	13	ITI_onset	n/a	n/a	n/a
180.95307466399998	0.3990788490000123	4.433425210999994	0.3990788490000123	14	stim1	n/a	n/a	n/a
181.352153513	0.017620699999999486	4.034346361999982	n/a	14	choice1	1	n/a	n/a
185.38649987499997	0.6480822770000377	3.166661213000014	0.6480822770000377	14	stim2	n/a	1	n/a
186.034582152	0.01857893599997624	2.5185789359999764	n/a	14	choice2	n/a	1	n/a
188.553161088	1.5	n/a	n/a	14	outcome	n/a	n/a	1
190.053161088	4.566839130000008	9.000352562000014	n/a	14	ITI_onset	n/a	n/a	n/a
194.620000218	1.4025672510000005	4.433513432000007	1.4025672510000005	15	stim1	n/a	n/a	n/a
196.022567469	0.01411914500000421	3.0309461810000067	n/a	15	choice1	1	n/a	n/a
199.05351365	1.1820491299999702	8.699895354000008	1.1820491299999702	15	stim2	n/a	1	n/a
200.23556277999998	0.017846224000037183	7.517846224000037	n/a	15	choice2	n/a	1	n/a
207.75340900400002	1.5	n/a	n/a	15	outcome	n/a	n/a	1
209.25340900400002	3.066917725999956	6.116986922999989	n/a	15	ITI_onset	n/a	n/a	n/a
212.32032672999998	0.5243844930000486	3.0500691970000333	0.5243844930000486	16	stim1	n/a	n/a	n/a
212.84471122300002	0.008914771999960066	2.5256847039999846	n/a	16	choice1	1	n/a	n/a
215.370395927	0.569851782999991	3.08328216599999	0.569851782999991	16	stim2	n/a	0	n/a
215.94024771	0.013430382999998982	2.513430382999999	n/a	16	choice2	n/a	0	n/a
218.45367809299998	1.5	n/a	n/a	16	outcome	n/a	n/a	0
219.95367809299998	6.566849075000006	9.217155793999991	n/a	16	ITI_onset	n/a	n/a	n/a
226.520527168	0.6190875360000063	2.650306718999986	0.6190875360000063	17	stim1	n/a	n/a	n/a
227.139614704	0.014293980999995256	2.0312191829999793	n/a	17	choice1	1	n/a	n/a
229.170833887	0.4016751000000222	7.9164541350000075	0.4016751000000222	17	stim2	n/a	0	n/a
229.572508987	0.014779034999985015	7.514779034999985	n/a	17	choice2	n/a	0	n/a
237.087288022	1.5	n/a	n/a	17	outcome	n/a	n/a	1
238.58728802199997	2.5673046430000106	4.95029363	n/a	17	ITI_onset	n/a	n/a	n/a
241.15459266499997	0.3515099540000083	2.38298898699999	0.3515099540000083	18	stim1	n/a	n/a	n/a
241.50610261900002	0.014694342999981017	2.0314790329999814	n/a	18	choice1	1	n/a	n/a
243.537581652	0.3820548410000047	2.899935070000036	0.3820548410000047	18	stim2	n/a	0	n/a
243.919636493	0.017880229000002145	2.5178802290000313	n/a	18	choice2	n/a	0	n/a
246.43751672200003	1.5	n/a	n/a	18	outcome	n/a	n/a	1
247.93751672200003	3.5667861970000088	8.516984869999986	n/a	18	ITI_onset	n/a	n/a	n/a
251.50430291900003	0.4198995509999222	4.950198672999977	0.4198995509999222	19	stim1	n/a	n/a	n/a
251.92420246999993	0.013548437000019476	4.530299122000055	n/a	19	choice1	1	n/a	n/a
256.45450159200004	0.43400874999997907	2.4498868529999744	0.43400874999997907	19	stim2	n/a	0	n/a
256.888510342	0.015878102999995463	2.0158781029999955	n/a	19	choice2	n/a	0	n/a
258.904388445	1.5	n/a	n/a	19	outcome	n/a	n/a	0
260.404388445	5.066830467999971	9.433595878000022	n/a	19	ITI_onset	n/a	n/a	n/a
265.471218913	1.3340108680000413	4.366765410000051	1.3340108680000413	20	stim1	n/a	n/a	n/a
266.80522978100004	0.016231626999971924	3.0327545420000095	n/a	20	choice1	0	n/a	n/a
269.83798432300006	0.4525199969999958	7.966663201999967	0.4525199969999958	20	stim2	n/a	1	n/a
270.29050432	0.014143204999971204	7.5141432049999715	n/a	20	choice2	n/a	1	n/a
277.804647525	1.5	n/a	n/a	20	outcome	n/a	n/a	1
279.304647525	3.5668506790000247	6.483573646000004	n/a	20	ITI_onset	n/a	n/a	n/a
282.87149820400003	0.895081652999972	2.9167229669999797	0.895081652999972	21	stim1	n/a	n/a	n/a
283.766579857	0.004952864999999292	2.0216413140000076	n/a	21	choice1	0	n/a	n/a
285.788221171	0.4252684950000257	2.4333171009999934	0.4252684950000257	21	stim2	n/a	0	n/a
286.21348966600004	0.008048605999967548	2.0080486059999676	n/a	21	choice2	n/a	0	n/a
288.221538272	1.5	n/a	n/a	21	outcome	n/a	n/a	0
289.721538272	4.566844582999998	6.9668624200000195	n/a	21	ITI_onset	n/a	n/a	n/a
294.288382855	0.363865037999989	2.4000178370000214	0.363865037999989	22	stim1	n/a	n/a	n/a
294.652247893	0.01945536700001685	2.0361527990000323	n/a	22	choice1	1	n/a	n/a
296.688400692	0.4232400630000047	5.433354954999988	0.4232400630000047	22	stim2	n/a	0	n/a
297.111640755	0.010114891999983229	5.010114891999983	n/a	22	choice2	n/a	0	n/a
302.121755647	1.5	n/a	n/a	22	outcome	n/a	n/a	0
303.621755647	3.0668917420000072	10.850300881000003	n/a	22	ITI_onset	n/a	n/a	n/a
306.68864738900004	1.2581693869999726	7.783409138999996	1.2581693869999726	23	stim1	n/a	n/a	n/a
307.946816776	0.0084053380000405	6.525239752000023	n/a	23	choice1	0	n/a	n/a
314.472056528	0.41218522099999244	3.4333251210000015	0.41218522099999244	23	stim2	n/a	1	n/a
314.884241749	0.02113990000000922	3.0211399000000094	n/a	23	choice2	n/a	1	n/a
317.905381649	1.5	n/a	n/a	23	outcome	n/a	n/a	1
319.405381649	4.566841054000019	9.06693312499998	n/a	23	ITI_onset	n/a	n/a	n/a
323.972222703	0.9743409599999432	4.500092070999963	0.9743409599999432	24	stim1	n/a	n/a	n/a
324.94656366299995	0.009014220000070055	3.5257511110000195	n/a	24	choice1	0	n/a	n/a
328.472314774	0.4700746120000258	2.4834033000000053	0.4700746120000258	24	stim2	n/a	1	n/a
328.942389386	0.013328687999979593	2.0133286879999797	n/a	24	choice2	n/a	1	n/a
330.955718074	1.5	n/a	n/a	24	outcome	n/a	n/a	1
332.455718074	8.56682116500003	12.800252534999977	n/a	24	ITI_onset	n/a	n/a	n/a
341.022539239	0.7110320010000142	4.2334313699999475	0.7110320010000142	25	stim1	n/a	n/a	n/a
341.73357124000006	0.005605696999991778	3.5223993689999333	n/a	25	choice1	0	n/a	n/a
345.255970609	0.9336042190000299	4.450003946000011	0.9336042190000299	25	stim2	n/a	1	n/a
346.189574828	0.016399726999981795	3.516399726999982	n/a	25	choice2	n/a	1	n/a
349.705974555	1.5	n/a	n/a	25	outcome	n/a	n/a	0
351.205974555	1.0	1.0	n/a	25	ITI_onset	n/a	n/a	n/a
