onset	duration	duration2fb	response_time	trial	event	choice1	state	reward
0.0	0.3629581300000027	2.3999844730000004	0.3629581300000027	1	stim1	n/a	n/a	n/a
0.36295813000000265	0.02062244599999758	2.0370263429999977	n/a	1	choice1	1	n/a	n/a
2.3999844730000035	0.42403212400000123	2.9333379529999983	0.42403212400000123	1	stim2	n/a	1	n/a
2.8240165970000035	0.009305828999997174	2.509305828999997	n/a	1	choice2	n/a	1	n/a
5.333322425999999	1.5	n/a	n/a	1	outcome	n/a	n/a	0
6.833322425999999	3.066837847000006	6.000173875000004	n/a	1	ITI_onset	n/a	n/a	n/a
9.900160273000008	0.3962811329999968	2.933336027999998	0.3962811329999968	2	stim1	n/a	n/a	n/a
10.296441406000003	0.020406224999998814	2.537054895000001	n/a	2	choice1	1	n/a	n/a
12.833496301000007	0.4334556869999942	3.9500260809999963	0.4334556869999942	2	stim2	n/a	0	n/a
13.266951987999999	0.016570394000002125	3.516570394000002	n/a	2	choice2	n/a	0	n/a
16.783522381999997	1.5	n/a	n/a	2	outcome	n/a	n/a	1
18.283522381999997	2.566829827000001	8.400256514	n/a	2	ITI_onset	n/a	n/a	n/a
20.850352209000004	1.299355893	5.833426686999999	1.299355893	3	stim1	n/a	n/a	n/a
22.149708102	0.017342885999998545	4.534070793999999	n/a	3	choice1	1	n/a	n/a
26.683778896000003	0.28696875900000307	2.299963812999995	0.28696875900000307	3	stim2	n/a	1	n/a
26.970747655000007	0.012995053999991797	2.0129950539999917	n/a	3	choice2	n/a	1	n/a
28.983742708999994	1.5	n/a	n/a	3	outcome	n/a	n/a	0
30.483742708999994	5.066858057000013	7.400290519000009	n/a	3	ITI_onset	n/a	n/a	n/a
35.550600766	0.30427411199999915	2.333432461999997	0.30427411199999915	4	stim1	n/a	n/a	n/a
35.854874878000004	0.01236724399999366	2.0291583499999977	n/a	4	choice1	0	n/a	n/a
37.88403322800001	0.5479069899999959	3.066629325000002	0.5479069899999959	4	stim2	n/a	1	n/a
38.431940217999994	0.018722335000005842	2.518722335000006	n/a	4	choice2	n/a	1	n/a
40.950662553	1.5	n/a	n/a	4	outcome	n/a	n/a	0
42.450662553	2.566825336000009	6.016901782999994	n/a	4	ITI_onset	n/a	n/a	n/a
45.01748788900001	0.42091585099999795	3.4500764469999847	0.42091585099999795	5	stim1	n/a	n/a	n/a
45.43840374	0.012325861000004807	3.0291605959999868	n/a	5	choice1	0	n/a	n/a
48.467564335999995	0.25267244200001004	3.7665888400000114	0.25267244200001004	5	stim2	n/a	0	n/a
48.720236778	0.013916398000001209	3.513916398000001	n/a	5	choice2	n/a	0	n/a
52.23415317600001	1.5	n/a	n/a	5	outcome	n/a	n/a	1
53.73415317600001	3.066844582999998	5.916863477999999	n/a	5	ITI_onset	n/a	n/a	n/a
56.800997759	0.3268932300000015	2.850018895000001	0.3268932300000015	6	stim1	n/a	n/a	n/a
57.12789098900001	0.006373696999988169	2.5231256649999994	n/a	6	choice1	0	n/a	n/a
59.651016654	0.29332866299999294	2.299952265	0.29332866299999294	6	stim2	n/a	0	n/a
59.944345317	0.00662360200000694	2.006623602000007	n/a	6	choice2	n/a	0	n/a
61.950968919000005	1.5	n/a	n/a	6	outcome	n/a	n/a	1
63.450968919000005	2.5669838119999913	5.600217311999994	n/a	6	ITI_onset	n/a	n/a	n/a
66.017952731	0.49748298600000274	3.033233500000002	0.49748298600000274	7	stim1	n/a	n/a	n/a
66.51543571699999	0.01903062600000703	2.535750513999999	n/a	7	choice1	0	n/a	n/a
69.05118623099999	0.2520314789999975	3.266663907000009	0.2520314789999975	7	stim2	n/a	0	n/a
69.30321771	0.014632428000011714	3.0146324280000116	n/a	7	choice2	n/a	0	n/a
72.317850138	1.5	n/a	n/a	7	outcome	n/a	n/a	1
73.817850138	3.566764382999987	10.866919073999991	n/a	7	ITI_onset	n/a	n/a	n/a
77.38461452099999	0.27614040400001977	7.300154691000003	0.27614040400001977	8	stim1	n/a	n/a	n/a
77.660754925	0.0071792309999873394	7.024014286999984	n/a	8	choice1	0	n/a	n/a
84.68476921199999	0.5740193239999936	4.08333926800001	0.5740193239999936	8	stim2	n/a	1	n/a
85.25878853599998	0.00931994400001713	3.5093199440000173	n/a	8	choice2	n/a	1	n/a
88.76810848000001	1.5	n/a	n/a	8	outcome	n/a	n/a	0
90.26810848000001	6.0669494859999835	11.900370398	n/a	8	ITI_onset	n/a	n/a	n/a
96.335057966	0.3107854330000118	5.833420912000016	0.3107854330000118	9	stim1	n/a	n/a	n/a
96.645843399	0.005786950000008801	5.522635479000004	n/a	9	choice1	0	n/a	n/a
102.168478878	0.2580340089999954	3.7665747249999986	0.2580340089999954	9	stim2	n/a	0	n/a
102.426512887	0.008540716000003157	3.5085407160000033	n/a	9	choice2	n/a	0	n/a
105.93505360300001	1.5	n/a	n/a	9	outcome	n/a	n/a	1
107.43505360300001	2.066821164999972	5.283566973999987	n/a	9	ITI_onset	n/a	n/a	n/a
109.50187476799998	0.6956104000000051	3.2167458090000145	0.6956104000000051	10	stim1	n/a	n/a	n/a
110.19748516799997	0.0043779870000144	2.5211354090000095	n/a	10	choice1	0	n/a	n/a
112.71862057699998	0.2981272210000316	2.316667661000014	0.2981272210000316	10	stim2	n/a	0	n/a
113.01674779800003	0.01854043999998248	2.0185404399999824	n/a	10	choice2	n/a	0	n/a
115.035288238	1.5	n/a	n/a	10	outcome	n/a	n/a	0
116.535288238	6.066842978999979	8.40019107	n/a	10	ITI_onset	n/a	n/a	n/a
122.60213121699998	0.2987069110000157	2.3333480910000217	0.2987069110000157	11	stim1	n/a	n/a	n/a
122.90083812799999	0.017901401999988593	2.034641180000006	n/a	11	choice1	0	n/a	n/a
124.93547930800001	0.3774000010000018	6.883279982999986	0.3774000010000018	11	stim2	n/a	0	n/a
125.312879309	0.005879981999984011	6.505879981999984	n/a	11	choice2	n/a	0	n/a
131.818759291	1.5	n/a	n/a	11	outcome	n/a	n/a	1
133.318759291	2.066886288000009	5.25029241200001	n/a	11	ITI_onset	n/a	n/a	n/a
135.385645579	0.6453015639999939	3.183406124000001	0.6453015639999939	12	stim1	n/a	n/a	n/a
136.03094714300002	0.021393333000014537	2.538104560000007	n/a	12	choice1	0	n/a	n/a
138.569051703	0.6084112399999867	3.616674141000025	0.6084112399999867	12	stim2	n/a	1	n/a
139.177462943	0.008262901000038255	3.0082629010000383	n/a	12	choice2	n/a	1	n/a
142.18572584400005	1.5	n/a	n/a	12	outcome	n/a	n/a	0
143.68572584400005	4.066834958999971	11.566935690999962	n/a	12	ITI_onset	n/a	n/a	n/a
147.75256080300002	0.45895464700000593	7.500100731999992	0.45895464700000593	13	stim1	n/a	n/a	n/a
148.21151545	0.024377757000009298	7.041146084999986	n/a	13	choice1	0	n/a	n/a
155.252661535	0.42214388300001154	6.933398585000017	0.42214388300001154	13	stim2	n/a	0	n/a
155.674805418	0.011254702000005636	6.511254702000006	n/a	13	choice2	n/a	0	n/a
162.18606012	1.5	n/a	n/a	13	outcome	n/a	n/a	1
163.68606012	2.0667977459999967	4.600198704999988	n/a	13	ITI_onset	n/a	n/a	n/a
165.75285786600003	0.4989115189999866	2.5334009589999913	0.4989115189999866	14	stim1	n/a	n/a	n/a
166.251769385	0.01775639900000533	2.0344894400000046	n/a	14	choice1	0	n/a	n/a
168.286258825	0.4212741870000027	7.933299135000008	0.4212741870000027	14	stim2	n/a	0	n/a
168.707533012	0.01202494800000568	7.512024948000006	n/a	14	choice2	n/a	0	n/a
176.21955796	1.5	n/a	n/a	14	outcome	n/a	n/a	1
177.71955796	3.066885325999989	9.500333955999988	n/a	14	ITI_onset	n/a	n/a	n/a
180.786443286	0.4005240630000189	6.433448629999999	0.4005240630000189	15	stim1	n/a	n/a	n/a
181.186967349	0.016126403000002027	6.03292456699998	n/a	15	choice1	0	n/a	n/a
187.219891916	0.33996880500001136	3.8500127989999893	0.33996880500001136	15	stim2	n/a	0	n/a
187.559860721	0.010043993999977829	3.510043993999978	n/a	15	choice2	n/a	0	n/a
191.06990471499998	1.5	n/a	n/a	15	outcome	n/a	n/a	1
192.56990471499998	3.0669321629999904	6.06687409800003	n/a	15	ITI_onset	n/a	n/a	n/a
195.63683687799997	0.4639434410000395	2.999941935000039	0.4639434410000395	16	stim1	n/a	n/a	n/a
196.10078031900002	0.019203538999980084	2.5359984939999993	n/a	16	choice1	0	n/a	n/a
198.636778813	0.2910994080000091	7.299951302000001	0.2910994080000091	16	stim2	n/a	0	n/a
198.92787822100004	0.008851893999992172	7.008851893999992	n/a	16	choice2	n/a	0	n/a
205.93673011500002	1.5	n/a	n/a	16	outcome	n/a	n/a	1
207.43673011500002	4.600244900999969	7.583705944999994	n/a	16	ITI_onset	n/a	n/a	n/a
212.03697501599999	0.4550219330000109	2.983461044000025	0.4550219330000109	17	stim1	n/a	n/a	n/a
212.491996949	0.011645760000043083	2.528439111000014	n/a	17	choice1	0	n/a	n/a
215.02043606	0.3453679059999995	7.3666120659999725	0.3453679059999995	17	stim2	n/a	0	n/a
215.36580396600002	0.02124415999997291	7.021244159999973	n/a	17	choice2	n/a	0	n/a
222.387048126	1.5	n/a	n/a	17	outcome	n/a	n/a	1
223.887048126	3.0669048950000435	8.433622184000008	n/a	17	ITI_onset	n/a	n/a	n/a
226.95395302100002	0.3375515610000002	5.366717288999964	0.3375515610000002	18	stim1	n/a	n/a	n/a
227.29150458200004	0.012462842999986606	5.029165727999963	n/a	18	choice1	0	n/a	n/a
232.32067031	0.22816026999999303	3.7332860470000306	0.22816026999999303	18	stim2	n/a	0	n/a
232.54883058	0.005125777000037488	3.5051257770000377	n/a	18	choice2	n/a	0	n/a
236.05395635700003	1.5	n/a	n/a	18	outcome	n/a	n/a	0
237.55395635700003	2.566834318000008	6.400299821999972	n/a	18	ITI_onset	n/a	n/a	n/a
240.12079067500005	0.8125074989999411	3.8334655039999634	0.8125074989999411	19	stim1	n/a	n/a	n/a
240.933298174	0.004174277000012807	3.0209580050000224	n/a	19	choice1	0	n/a	n/a
243.954256179	0.44572444499999986	6.466618290000013	0.44572444499999986	19	stim2	n/a	0	n/a
244.399980624	0.020893845000013244	6.020893845000013	n/a	19	choice2	n/a	0	n/a
250.42087446899998	1.5	n/a	n/a	19	outcome	n/a	n/a	0
251.92087446899998	2.5668221270000213	8.05026231900003	n/a	19	ITI_onset	n/a	n/a	n/a
254.487696596	0.457314384999976	5.4834401920000095	0.457314384999976	20	stim1	n/a	n/a	n/a
254.94501098100002	0.009397899999981746	5.026125807000033	n/a	20	choice1	0	n/a	n/a
259.971136788	0.25178349999996136	3.2666914969999925	0.25178349999996136	20	stim2	n/a	0	n/a
260.22292028799995	0.014907997000031174	3.014907997000031	n/a	20	choice2	n/a	0	n/a
263.237828285	1.5	n/a	n/a	20	outcome	n/a	n/a	0
264.737828285	3.0667724029999808	5.96686145799997	n/a	20	ITI_onset	n/a	n/a	n/a
267.804600688	0.372316891000024	2.9000890549999894	0.372316891000024	21	stim1	n/a	n/a	n/a
268.176917579	0.0110275739999488	2.5277721639999653	n/a	21	choice1	1	n/a	n/a
270.70468974299996	0.39792620700004044	4.91666650599998	0.39792620700004044	21	stim2	n/a	1	n/a
271.10261595000003	0.018740298999939113	4.518740298999939	n/a	21	choice2	n/a	1	n/a
275.621356249	1.5	n/a	n/a	21	outcome	n/a	n/a	1
277.121356249	4.066777857000008	9.433586575000023	n/a	21	ITI_onset	n/a	n/a	n/a
281.18813410599995	0.33043231900001413	5.366808718000015	0.33043231900001413	22	stim1	n/a	n/a	n/a
281.51856642499996	0.01962282699998468	5.036376399000001	n/a	22	choice1	1	n/a	n/a
286.55494282399997	0.7466304539999692	7.26665717099997	0.7466304539999692	22	stim2	n/a	0	n/a
287.3015732779999	0.020026717000000645	6.520026717	n/a	22	choice2	n/a	0	n/a
293.82159999499993	1.5	n/a	n/a	22	outcome	n/a	n/a	0
295.32159999499993	3.066855811000045	5.483592252000002	n/a	22	ITI_onset	n/a	n/a	n/a
298.38845580599997	0.3795567539999611	2.416736440999957	0.3795567539999611	23	stim1	n/a	n/a	n/a
298.76801255999993	0.020496692000015172	2.037179686999996	n/a	23	choice1	1	n/a	n/a
300.8051922469999	0.30382787600002487	3.3166192210000007	0.30382787600002487	23	stim2	n/a	1	n/a
301.109020123	0.01279134499997599	3.012791344999976	n/a	23	choice2	n/a	1	n/a
304.121811468	1.5	n/a	n/a	23	outcome	n/a	n/a	0
305.621811468	5.066902327000047	9.366923884999997	n/a	23	ITI_onset	n/a	n/a	n/a
310.688713795	0.279226520999975	4.3000215579999495	0.279226520999975	24	stim1	n/a	n/a	n/a
310.96794031599995	0.0040405030000256375	4.020795036999974	n/a	24	choice1	1	n/a	n/a
314.9887353529999	0.2683295130000333	2.2833026330000723	0.2683295130000333	24	stim2	n/a	1	n/a
315.257064866	0.014973120000038762	2.0149731200000387	n/a	24	choice2	n/a	1	n/a
317.27203798600004	1.5	n/a	n/a	24	outcome	n/a	n/a	1
318.77203798600004	3.0668660769999843	8.650351951999998	n/a	24	ITI_onset	n/a	n/a	n/a
321.83890406300003	0.5486701790000079	5.583485875000013	0.5486701790000079	25	stim1	n/a	n/a	n/a
322.387574242	0.017962674999958836	5.034815696000005	n/a	25	choice1	1	n/a	n/a
327.42238993800004	0.43359170699992683	4.949904175999982	0.43359170699992683	25	stim2	n/a	1	n/a
327.85598164499993	0.01631246900005499	4.516312469000055	n/a	25	choice2	n/a	1	n/a
332.372294114	1.5	n/a	n/a	25	outcome	n/a	n/a	0
333.872294114	1.0	1.0	n/a	25	ITI_onset	n/a	n/a	n/a
